ptp,rt,row,col,correct,condition,stage,stimulus,corr_row,corr_col,trial_type,trial_index,time_elapsed,internal_node_id,session_global,session_condition,response_dist_cb,rougly_correct
48652,NA,NA,NA,NA,adj_6_6,schema_learning,img/targets/BOSS/downsized/buffaloskull.jpg,6,3,playground,0,4026,0.0-0.0-0.0,1,1,NA,0
48652,825,6,6,0,adj_6_6,schema_learning,img/targets/BOSS/downsized/bulletbelt.jpg,7,7,playground,1,6366,0.0-0.0-0.1,1,1,2,0
48652,2739,10,8,0,adj_6_6,schema_learning,img/targets/BOSS/downsized/bulldozer.jpg,9,4,playground,2,10621,0.0-0.0-0.2,1,1,-5,0
48652,1159,5,4,0,adj_6_6,schema_learning,img/targets/BOSS/downsized/bullet.jpg,3,6,playground,3,13297,0.0-0.0-0.3,1,1,0,1
48652,1461,2,12,0,adj_6_6,schema_learning,img/targets/BOSS/downsized/butterfly.jpg,5,10,playground,4,16270,0.0-0.0-0.4,1,1,1,1
48652,1393,8,5,0,adj_6_6,schema_learning,img/targets/BOSS/downsized/buffaloskull.jpg,6,3,playground,5,19182,0.0-0.0-0.5,1,1,-4,0
48652,1437,9,9,0,adj_6_6,schema_learning,img/targets/BOSS/downsized/bulldozer.jpg,9,4,playground,6,22139,0.0-0.0-0.6,1,1,-5,0
48652,1484,6,3,1,adj_6_6,schema_learning,img/targets/BOSS/downsized/buffaloskull.jpg,6,3,playground,7,25137,0.0-0.0-0.7,1,1,0,1
48652,NA,NA,NA,NA,adj_6_6,schema_learning,img/targets/BOSS/downsized/butterfly.jpg,5,10,playground,8,29663,0.0-0.0-0.8,1,1,NA,0
48652,1641,11,10,0,adj_6_6,schema_learning,img/targets/BOSS/downsized/bun.jpg,10,9,playground,9,32824,0.0-0.0-0.9,1,1,-2,0
48652,1480,6,6,0,adj_6_6,schema_learning,img/targets/BOSS/downsized/bulletbelt.jpg,7,7,playground,10,35826,0.0-0.0-0.10,1,1,2,0
48652,1773,5,10,1,adj_6_6,schema_learning,img/targets/BOSS/downsized/butterfly.jpg,5,10,playground,11,39110,0.0-0.0-0.11,1,1,0,1
48652,1677,9,8,0,adj_6_6,schema_learning,img/targets/BOSS/downsized/bulldozer.jpg,9,4,playground,12,42292,0.0-0.0-0.12,1,1,-4,0
48652,1446,6,10,0,adj_6_6,schema_learning,img/targets/BOSS/downsized/butterfly.jpg,5,10,playground,13,45244,0.0-0.0-0.13,1,1,-1,1
48652,2490,8,7,0,adj_6_6,schema_learning,img/targets/BOSS/downsized/bulletbelt.jpg,7,7,playground,14,49248,0.0-0.0-0.14,1,1,-1,1
48652,1899,10,9,1,adj_6_6,schema_learning,img/targets/BOSS/downsized/bun.jpg,10,9,playground,15,52669,0.0-0.0-0.15,1,1,0,1
48652,1332,8,4,0,adj_6_6,schema_learning,img/targets/BOSS/downsized/buffaloskull.jpg,6,3,playground,16,55521,0.0-0.0-0.16,1,1,-3,0
48652,1504,5,7,0,adj_6_6,schema_learning,img/targets/BOSS/downsized/bullet.jpg,3,6,playground,17,58547,0.0-0.0-0.17,1,1,-3,0
48652,2188,10,9,1,adj_6_6,schema_learning,img/targets/BOSS/downsized/bun.jpg,10,9,playground,18,62255,0.0-0.0-0.18,1,1,0,1
48652,1820,5,10,1,adj_6_6,schema_learning,img/targets/BOSS/downsized/butterfly.jpg,5,10,playground,19,65598,0.0-0.0-0.19,1,1,0,1
48652,2193,10,8,0,adj_6_6,schema_learning,img/targets/BOSS/downsized/bulldozer.jpg,9,4,playground,20,69311,0.0-0.0-0.20,1,1,-5,0
48652,2206,6,7,0,adj_6_6,schema_learning,img/targets/BOSS/downsized/bulletbelt.jpg,7,7,playground,21,73048,0.0-0.0-0.21,1,1,1,1
48652,1919,7,3,0,adj_6_6,schema_learning,img/targets/BOSS/downsized/buffaloskull.jpg,6,3,playground,22,76495,0.0-0.0-0.22,1,1,-1,1
48652,1713,5,10,1,adj_6_6,schema_learning,img/targets/BOSS/downsized/butterfly.jpg,5,10,playground,23,79721,0.0-0.0-0.23,1,1,0,1
48652,1666,10,9,1,adj_6_6,schema_learning,img/targets/BOSS/downsized/bun.jpg,10,9,playground,24,82902,0.0-0.0-0.24,1,1,0,1
48652,1537,5,10,1,adj_6_6,schema_learning,img/targets/BOSS/downsized/butterfly.jpg,5,10,playground,25,85969,0.0-0.0-0.25,1,1,0,1
48652,1409,8,4,0,adj_6_6,schema_learning,img/targets/BOSS/downsized/buffaloskull.jpg,6,3,playground,26,88883,0.0-0.0-0.26,1,1,-3,0
48652,1766,6,7,0,adj_6_6,schema_learning,img/targets/BOSS/downsized/bulletbelt.jpg,7,7,playground,27,92166,0.0-0.0-0.27,1,1,1,1
48652,2139,4,6,0,adj_6_6,schema_learning,img/targets/BOSS/downsized/bullet.jpg,3,6,playground,28,95826,0.0-0.0-0.28,1,1,-1,1
48652,1477,10,9,1,adj_6_6,schema_learning,img/targets/BOSS/downsized/bun.jpg,10,9,playground,29,98827,0.0-0.0-0.29,1,1,0,1
48652,1812,9,3,0,adj_6_6,schema_learning,img/targets/BOSS/downsized/bulldozer.jpg,9,4,playground,30,102156,0.0-0.0-0.30,1,1,1,1
48652,1452,7,7,1,adj_6_6,schema_learning,img/targets/BOSS/downsized/bulletbelt.jpg,7,7,playground,31,105146,0.0-0.0-0.31,1,1,0,1
48652,1502,3,6,1,adj_6_6,schema_learning,img/targets/BOSS/downsized/bullet.jpg,3,6,playground,32,108165,0.0-0.0-0.32,1,1,0,1
48652,1720,9,4,1,adj_6_6,schema_learning,img/targets/BOSS/downsized/bulldozer.jpg,9,4,playground,33,111406,0.0-0.0-0.33,1,1,0,1
48652,1116,10,9,1,adj_6_6,schema_learning,img/targets/BOSS/downsized/bun.jpg,10,9,playground,34,114046,0.0-0.0-0.34,1,1,0,1
48652,1788,5,3,0,adj_6_6,schema_learning,img/targets/BOSS/downsized/buffaloskull.jpg,6,3,playground,35,117350,0.0-0.0-0.35,1,1,1,1
48652,1253,10,10,0,adj_6_6,schema_learning,img/targets/BOSS/downsized/bun.jpg,10,9,playground,36,120126,0.0-0.0-0.36,1,1,-1,1
48652,1155,9,4,1,adj_6_6,schema_learning,img/targets/BOSS/downsized/bulldozer.jpg,9,4,playground,37,122796,0.0-0.0-0.37,1,1,0,1
48652,1617,7,7,1,adj_6_6,schema_learning,img/targets/BOSS/downsized/bulletbelt.jpg,7,7,playground,38,125936,0.0-0.0-0.38,1,1,0,1
48652,1192,3,6,1,adj_6_6,schema_learning,img/targets/BOSS/downsized/bullet.jpg,3,6,playground,39,128645,0.0-0.0-0.39,1,1,0,1
48652,1624,6,3,1,adj_6_6,schema_learning,img/targets/BOSS/downsized/buffaloskull.jpg,6,3,playground,40,131785,0.0-0.0-0.40,1,1,0,1
48652,1851,3,6,1,adj_6_6,schema_learning,img/targets/BOSS/downsized/bullet.jpg,3,6,playground,41,135167,0.0-0.0-0.41,1,1,0,1
48652,1618,10,9,1,adj_6_6,schema_learning,img/targets/BOSS/downsized/bun.jpg,10,9,playground,42,138296,0.0-0.0-0.42,1,1,0,1
48652,1686,6,2,0,adj_6_6,schema_learning,img/targets/BOSS/downsized/buffaloskull.jpg,6,3,playground,43,141496,0.0-0.0-0.43,1,1,1,1
48652,1913,3,6,1,adj_6_6,schema_learning,img/targets/BOSS/downsized/bullet.jpg,3,6,playground,44,144916,0.0-0.0-0.44,1,1,0,1
48652,1531,4,10,0,adj_6_6,schema_learning,img/targets/BOSS/downsized/butterfly.jpg,5,10,playground,45,147964,0.0-0.0-0.45,1,1,1,1
48652,1390,8,7,0,adj_6_6,schema_learning,img/targets/BOSS/downsized/bulletbelt.jpg,7,7,playground,46,150876,0.0-0.0-0.46,1,1,-1,1
48652,2154,5,10,1,adj_6_6,schema_learning,img/targets/BOSS/downsized/butterfly.jpg,5,10,playground,47,154546,0.0-0.0-0.47,1,1,0,1
48652,1988,6,3,1,adj_6_6,schema_learning,img/targets/BOSS/downsized/buffaloskull.jpg,6,3,playground,48,158057,0.0-0.0-0.48,1,1,0,1
48652,1787,10,4,0,adj_6_6,schema_learning,img/targets/BOSS/downsized/bulldozer.jpg,9,4,playground,49,161346,0.0-0.0-0.49,1,1,-1,1
48652,1549,7,7,1,adj_6_6,schema_learning,img/targets/BOSS/downsized/bulletbelt.jpg,7,7,playground,50,164416,0.0-0.0-0.50,1,1,0,1
48652,1530,10,9,1,adj_6_6,schema_learning,img/targets/BOSS/downsized/bun.jpg,10,9,playground,51,167477,0.0-0.0-0.51,1,1,0,1
48652,1298,8,7,0,adj_6_6,schema_learning,img/targets/BOSS/downsized/bulletbelt.jpg,7,7,playground,52,170287,0.0-0.0-0.52,1,1,-1,1
48652,2031,9,4,1,adj_6_6,schema_learning,img/targets/BOSS/downsized/bulldozer.jpg,9,4,playground,53,173836,0.0-0.0-0.53,1,1,0,1
48652,2157,4,6,0,adj_6_6,schema_learning,img/targets/BOSS/downsized/bullet.jpg,3,6,playground,54,177515,0.0-0.0-0.54,1,1,-1,1
48652,2366,9,3,0,adj_6_6,schema_learning,img/targets/BOSS/downsized/bulldozer.jpg,9,4,playground,55,181396,0.0-0.0-0.55,1,1,1,1
48652,1939,10,10,0,adj_6_6,schema_learning,img/targets/BOSS/downsized/bun.jpg,10,9,playground,56,184866,0.0-0.0-0.56,1,1,-1,1
48652,1892,3,6,1,adj_6_6,schema_learning,img/targets/BOSS/downsized/bullet.jpg,3,6,playground,57,188276,0.0-0.0-0.57,1,1,0,1
48652,1502,6,10,0,adj_6_6,schema_learning,img/targets/BOSS/downsized/butterfly.jpg,5,10,playground,58,191306,0.0-0.0-0.58,1,1,-1,1
48652,2696,3,6,1,adj_6_6,schema_learning,img/targets/BOSS/downsized/bullet.jpg,3,6,playground,59,195506,0.0-0.0-0.59,1,1,0,1
48652,1885,5,10,1,adj_6_6,schema_learning,img/targets/BOSS/downsized/butterfly.jpg,5,10,playground,0,2898,0.0-0.0-0.0,2,2,0,1
48652,1515,6,3,1,adj_6_6,schema_learning,img/targets/BOSS/downsized/buffaloskull.jpg,6,3,playground,1,5927,0.0-0.0-0.1,2,2,0,1
48652,1630,5,10,1,adj_6_6,schema_learning,img/targets/BOSS/downsized/butterfly.jpg,5,10,playground,2,9077,0.0-0.0-0.2,2,2,0,1
48652,1710,6,3,1,adj_6_6,schema_learning,img/targets/BOSS/downsized/buffaloskull.jpg,6,3,playground,3,12317,0.0-0.0-0.3,2,2,0,1
48652,1473,5,10,1,adj_6_6,schema_learning,img/targets/BOSS/downsized/butterfly.jpg,5,10,playground,4,15327,0.0-0.0-0.4,2,2,0,1
48652,1347,6,3,1,adj_6_6,schema_learning,img/targets/BOSS/downsized/buffaloskull.jpg,6,3,playground,5,18197,0.0-0.0-0.5,2,2,0,1
48652,1575,3,6,1,adj_6_6,schema_learning,img/targets/BOSS/downsized/bullet.jpg,3,6,playground,6,21287,0.0-0.0-0.6,2,2,0,1
48652,1978,9,4,1,adj_6_6,schema_learning,img/targets/BOSS/downsized/bulldozer.jpg,9,4,playground,7,24777,0.0-0.0-0.7,2,2,0,1
48652,1700,10,9,1,adj_6_6,schema_learning,img/targets/BOSS/downsized/bun.jpg,10,9,playground,8,28007,0.0-0.0-0.8,2,2,0,1
48652,1572,6,3,1,adj_6_6,schema_learning,img/targets/BOSS/downsized/buffaloskull.jpg,6,3,playground,9,31098,0.0-0.0-0.9,2,2,0,1
48652,1680,9,4,1,adj_6_6,schema_learning,img/targets/BOSS/downsized/bulldozer.jpg,9,4,playground,10,34297,0.0-0.0-0.10,2,2,0,1
48652,1628,5,10,1,adj_6_6,schema_learning,img/targets/BOSS/downsized/butterfly.jpg,5,10,playground,11,37437,0.0-0.0-0.11,2,2,0,1
48652,1394,4,6,0,adj_6_6,schema_learning,img/targets/BOSS/downsized/bullet.jpg,3,6,playground,12,40357,0.0-0.0-0.12,2,2,-1,1
48652,1450,10,8,0,adj_6_6,schema_learning,img/targets/BOSS/downsized/bulldozer.jpg,9,4,playground,13,43325,0.0-0.0-0.13,2,2,-5,0
48652,1378,4,10,0,adj_6_6,schema_learning,img/targets/BOSS/downsized/butterfly.jpg,5,10,playground,14,46247,0.0-0.0-0.14,2,2,1,1
48652,1697,7,7,1,adj_6_6,schema_learning,img/targets/BOSS/downsized/bulletbelt.jpg,7,7,playground,15,49467,0.0-0.0-0.15,2,2,0,1
48652,1698,3,6,1,adj_6_6,schema_learning,img/targets/BOSS/downsized/bullet.jpg,3,6,playground,16,52677,0.0-0.0-0.16,2,2,0,1
48652,2240,9,4,1,adj_6_6,schema_learning,img/targets/BOSS/downsized/bulldozer.jpg,9,4,playground,17,56437,0.0-0.0-0.17,2,2,0,1
48652,1601,10,9,1,adj_6_6,schema_learning,img/targets/BOSS/downsized/bun.jpg,10,9,playground,18,59547,0.0-0.0-0.18,2,2,0,1
48652,1912,6,6,0,adj_6_6,schema_learning,img/targets/BOSS/downsized/bulletbelt.jpg,7,7,playground,19,62987,0.0-0.0-0.19,2,2,2,0
48652,1550,6,3,1,adj_6_6,schema_learning,img/targets/BOSS/downsized/buffaloskull.jpg,6,3,playground,20,66065,0.0-0.0-0.20,2,2,0,1
48652,1482,7,7,1,adj_6_6,schema_learning,img/targets/BOSS/downsized/bulletbelt.jpg,7,7,playground,21,69077,0.0-0.0-0.21,2,2,0,1
48652,1516,3,6,1,adj_6_6,schema_learning,img/targets/BOSS/downsized/bullet.jpg,3,6,playground,22,72117,0.0-0.0-0.22,2,2,0,1
48652,1280,10,9,1,adj_6_6,schema_learning,img/targets/BOSS/downsized/bun.jpg,10,9,playground,23,74917,0.0-0.0-0.23,2,2,0,1
48652,1293,8,7,0,adj_6_6,schema_learning,img/targets/BOSS/downsized/bulletbelt.jpg,7,7,playground,24,77736,0.0-0.0-0.24,2,2,-1,1
48652,1460,10,9,1,adj_6_6,schema_learning,img/targets/BOSS/downsized/bun.jpg,10,9,playground,25,80713,0.0-0.0-0.25,2,2,0,1
48652,1792,5,10,1,adj_6_6,schema_learning,img/targets/BOSS/downsized/butterfly.jpg,5,10,playground,26,84027,0.0-0.0-0.26,2,2,0,1
48652,1981,10,9,1,adj_6_6,schema_learning,img/targets/BOSS/downsized/bun.jpg,10,9,playground,27,87527,0.0-0.0-0.27,2,2,0,1
48652,2109,7,7,1,adj_6_6,schema_learning,img/targets/BOSS/downsized/bulletbelt.jpg,7,7,playground,28,91167,0.0-0.0-0.28,2,2,0,1
48652,1596,4,6,0,adj_6_6,schema_learning,img/targets/BOSS/downsized/bullet.jpg,3,6,playground,29,94277,0.0-0.0-0.29,2,2,-1,1
48652,1651,7,7,1,adj_6_6,schema_learning,img/targets/BOSS/downsized/bulletbelt.jpg,7,7,playground,30,97445,0.0-0.0-0.30,2,2,0,1
48652,2185,9,4,1,adj_6_6,schema_learning,img/targets/BOSS/downsized/bulldozer.jpg,9,4,playground,31,101146,0.0-0.0-0.31,2,2,0,1
48652,1761,6,2,0,adj_6_6,schema_learning,img/targets/BOSS/downsized/buffaloskull.jpg,6,3,playground,32,104437,0.0-0.0-0.32,2,2,1,1
48652,1971,2,6,0,adj_6_6,schema_learning,img/targets/BOSS/downsized/bullet.jpg,3,6,playground,33,107923,0.0-0.0-0.33,2,2,1,1
48652,1681,10,10,0,adj_6_6,schema_learning,img/targets/BOSS/downsized/bun.jpg,10,9,playground,34,111107,0.0-0.0-0.34,2,2,-1,1
48652,1334,10,3,0,adj_6_6,schema_learning,img/targets/BOSS/downsized/bulldozer.jpg,9,4,playground,35,113968,0.0-0.0-0.35,2,2,0,1
48652,1588,5,3,0,adj_6_6,schema_learning,img/targets/BOSS/downsized/buffaloskull.jpg,6,3,playground,36,117067,0.0-0.0-0.36,2,2,1,1
48652,1387,10,10,0,adj_6_6,schema_learning,img/targets/BOSS/downsized/bun.jpg,10,9,playground,37,119967,0.0-0.0-0.37,2,2,-1,1
48652,1145,10,4,0,adj_6_6,schema_learning,img/targets/BOSS/downsized/bulldozer.jpg,9,4,playground,38,122647,0.0-0.0-0.38,2,2,-1,1
48652,1782,5,11,0,adj_6_6,schema_learning,img/targets/BOSS/downsized/butterfly.jpg,5,10,playground,39,125954,0.0-0.0-0.39,2,2,-1,1
48652,2720,7,7,1,adj_6_6,schema_learning,img/targets/BOSS/downsized/bulletbelt.jpg,7,7,playground,40,130207,0.0-0.0-0.40,2,2,0,1
48652,1884,9,4,1,adj_6_6,schema_learning,img/targets/BOSS/downsized/bulldozer.jpg,9,4,playground,41,133607,0.0-0.0-0.41,2,2,0,1
48652,1332,7,7,1,adj_6_6,schema_learning,img/targets/BOSS/downsized/bulletbelt.jpg,7,7,playground,42,136447,0.0-0.0-0.42,2,2,0,1
48652,1240,10,9,1,adj_6_6,schema_learning,img/targets/BOSS/downsized/bun.jpg,10,9,playground,43,139207,0.0-0.0-0.43,2,2,0,1
48652,2058,9,4,1,adj_6_6,schema_learning,img/targets/BOSS/downsized/bulldozer.jpg,9,4,playground,44,142797,0.0-0.0-0.44,2,2,0,1
48652,1434,7,7,1,adj_6_6,schema_learning,img/targets/BOSS/downsized/bulletbelt.jpg,7,7,playground,45,145767,0.0-0.0-0.45,2,2,0,1
48652,1799,5,3,0,adj_6_6,schema_learning,img/targets/BOSS/downsized/buffaloskull.jpg,6,3,playground,46,149087,0.0-0.0-0.46,2,2,1,1
48652,1580,10,9,1,adj_6_6,schema_learning,img/targets/BOSS/downsized/bun.jpg,10,9,playground,47,152184,0.0-0.0-0.47,2,2,0,1
48652,1432,5,11,0,adj_6_6,schema_learning,img/targets/BOSS/downsized/butterfly.jpg,5,10,playground,48,155127,0.0-0.0-0.48,2,2,-1,1
48652,1452,10,9,1,adj_6_6,schema_learning,img/targets/BOSS/downsized/bun.jpg,10,9,playground,49,158097,0.0-0.0-0.49,2,2,0,1
48652,2113,3,5,0,adj_6_6,schema_learning,img/targets/BOSS/downsized/bullet.jpg,3,6,playground,50,161727,0.0-0.0-0.50,2,2,1,1
48652,2150,4,10,0,adj_6_6,schema_learning,img/targets/BOSS/downsized/butterfly.jpg,5,10,playground,51,165407,0.0-0.0-0.51,2,2,1,1
48652,2014,3,6,1,adj_6_6,schema_learning,img/targets/BOSS/downsized/bullet.jpg,3,6,playground,52,168947,0.0-0.0-0.52,2,2,0,1
48652,1916,6,3,1,adj_6_6,schema_learning,img/targets/BOSS/downsized/buffaloskull.jpg,6,3,playground,53,172371,0.0-0.0-0.53,2,2,0,1
48652,1788,3,6,1,adj_6_6,schema_learning,img/targets/BOSS/downsized/bullet.jpg,3,6,playground,54,175678,0.0-0.0-0.54,2,2,0,1
48652,1628,5,11,0,adj_6_6,schema_learning,img/targets/BOSS/downsized/butterfly.jpg,5,10,playground,55,178827,0.0-0.0-0.55,2,2,-1,1
48652,1642,7,7,1,adj_6_6,schema_learning,img/targets/BOSS/downsized/bulletbelt.jpg,7,7,playground,56,181987,0.0-0.0-0.56,2,2,0,1
48652,1720,5,3,0,adj_6_6,schema_learning,img/targets/BOSS/downsized/buffaloskull.jpg,6,3,playground,57,185221,0.0-0.0-0.57,2,2,1,1
48652,1806,3,6,1,adj_6_6,schema_learning,img/targets/BOSS/downsized/bullet.jpg,3,6,playground,58,188557,0.0-0.0-0.58,2,2,0,1
48652,1808,9,4,1,adj_6_6,schema_learning,img/targets/BOSS/downsized/bulldozer.jpg,9,4,playground,59,191887,0.0-0.0-0.59,2,2,0,1
48652,1803,5,10,1,adj_6_6,schema_learning,img/targets/BOSS/downsized/butterfly.jpg,5,10,playground,0,2813,0.0-0.0-0.0,3,3,0,1
48652,2114,7,4,0,adj_6_6,schema_learning,img/targets/BOSS/downsized/bulldozer.jpg,9,4,playground,1,6453,0.0-0.0-0.1,3,3,2,0
48652,1650,6,3,1,adj_6_6,schema_learning,img/targets/BOSS/downsized/buffaloskull.jpg,6,3,playground,2,9623,0.0-0.0-0.2,3,3,0,1
48652,1430,3,6,1,adj_6_6,schema_learning,img/targets/BOSS/downsized/bullet.jpg,3,6,playground,3,12573,0.0-0.0-0.3,3,3,0,1
48652,1850,5,10,1,adj_6_6,schema_learning,img/targets/BOSS/downsized/butterfly.jpg,5,10,playground,4,15954,0.0-0.0-0.4,3,3,0,1
48652,1761,6,3,1,adj_6_6,schema_learning,img/targets/BOSS/downsized/buffaloskull.jpg,6,3,playground,5,19253,0.0-0.0-0.5,3,3,0,1
48652,1534,3,6,1,adj_6_6,schema_learning,img/targets/BOSS/downsized/bullet.jpg,3,6,playground,6,22305,0.0-0.0-0.6,3,3,0,1
48652,1487,5,10,1,adj_6_6,schema_learning,img/targets/BOSS/downsized/butterfly.jpg,5,10,playground,7,25314,0.0-0.0-0.7,3,3,0,1
48652,1785,7,7,1,adj_6_6,schema_learning,img/targets/BOSS/downsized/bulletbelt.jpg,7,7,playground,8,28623,0.0-0.0-0.8,3,3,0,1
48652,1472,3,6,1,adj_6_6,schema_learning,img/targets/BOSS/downsized/bullet.jpg,3,6,playground,9,31630,0.0-0.0-0.9,3,3,0,1
48652,1534,6,3,1,adj_6_6,schema_learning,img/targets/BOSS/downsized/buffaloskull.jpg,6,3,playground,10,34674,0.0-0.0-0.10,3,3,0,1
48652,1448,11,10,0,adj_6_6,schema_learning,img/targets/BOSS/downsized/bun.jpg,10,9,playground,11,37634,0.0-0.0-0.11,3,3,-2,0
48652,1195,7,7,1,adj_6_6,schema_learning,img/targets/BOSS/downsized/bulletbelt.jpg,7,7,playground,12,40353,0.0-0.0-0.12,3,3,0,1
48652,1490,3,6,1,adj_6_6,schema_learning,img/targets/BOSS/downsized/bullet.jpg,3,6,playground,13,43373,0.0-0.0-0.13,3,3,0,1
48652,1161,7,7,1,adj_6_6,schema_learning,img/targets/BOSS/downsized/bulletbelt.jpg,7,7,playground,14,46053,0.0-0.0-0.14,3,3,0,1
48652,1464,9,4,1,adj_6_6,schema_learning,img/targets/BOSS/downsized/bulldozer.jpg,9,4,playground,15,49044,0.0-0.0-0.15,3,3,0,1
48652,1894,5,10,1,adj_6_6,schema_learning,img/targets/BOSS/downsized/butterfly.jpg,5,10,playground,16,52463,0.0-0.0-0.16,3,3,0,1
48652,2256,6,3,1,adj_6_6,schema_learning,img/targets/BOSS/downsized/buffaloskull.jpg,6,3,playground,17,56233,0.0-0.0-0.17,3,3,0,1
48652,2075,9,4,1,adj_6_6,schema_learning,img/targets/BOSS/downsized/bulldozer.jpg,9,4,playground,18,59833,0.0-0.0-0.18,3,3,0,1
48652,1530,3,6,1,adj_6_6,schema_learning,img/targets/BOSS/downsized/bullet.jpg,3,6,playground,19,62893,0.0-0.0-0.19,3,3,0,1
48652,1684,10,9,1,adj_6_6,schema_learning,img/targets/BOSS/downsized/bun.jpg,10,9,playground,20,66103,0.0-0.0-0.20,3,3,0,1
48652,1414,5,10,1,adj_6_6,schema_learning,img/targets/BOSS/downsized/butterfly.jpg,5,10,playground,21,69043,0.0-0.0-0.21,3,3,0,1
48652,1864,7,3,0,adj_6_6,schema_learning,img/targets/BOSS/downsized/buffaloskull.jpg,6,3,playground,22,72433,0.0-0.0-0.22,3,3,-1,1
48652,2267,9,3,0,adj_6_6,schema_learning,img/targets/BOSS/downsized/bulldozer.jpg,9,4,playground,23,76212,0.0-0.0-0.23,3,3,1,1
48652,1688,3,6,1,adj_6_6,schema_learning,img/targets/BOSS/downsized/bullet.jpg,3,6,playground,24,79412,0.0-0.0-0.24,3,3,0,1
48652,1394,10,10,0,adj_6_6,schema_learning,img/targets/BOSS/downsized/bun.jpg,10,9,playground,25,82333,0.0-0.0-0.25,3,3,-1,1
48652,1879,8,4,0,adj_6_6,schema_learning,img/targets/BOSS/downsized/bulldozer.jpg,9,4,playground,26,85723,0.0-0.0-0.26,3,3,1,1
48652,2350,7,7,1,adj_6_6,schema_learning,img/targets/BOSS/downsized/bulletbelt.jpg,7,7,playground,27,89588,0.0-0.0-0.27,3,3,0,1
48652,1598,3,6,1,adj_6_6,schema_learning,img/targets/BOSS/downsized/bullet.jpg,3,6,playground,28,92693,0.0-0.0-0.28,3,3,0,1
48652,1572,5,10,1,adj_6_6,schema_learning,img/targets/BOSS/downsized/butterfly.jpg,5,10,playground,29,95793,0.0-0.0-0.29,3,3,0,1
48652,2606,9,4,1,adj_6_6,schema_learning,img/targets/BOSS/downsized/bulldozer.jpg,9,4,playground,30,99915,0.0-0.0-0.30,3,3,0,1
48652,2009,6,3,1,adj_6_6,schema_learning,img/targets/BOSS/downsized/buffaloskull.jpg,6,3,playground,31,103453,0.0-0.0-0.31,3,3,0,1
48652,1918,10,10,0,adj_6_6,schema_learning,img/targets/BOSS/downsized/bun.jpg,10,9,playground,32,106893,0.0-0.0-0.32,3,3,-1,1
48652,2315,9,3,0,adj_6_6,schema_learning,img/targets/BOSS/downsized/bulldozer.jpg,9,4,playground,33,110724,0.0-0.0-0.33,3,3,1,1
48652,1241,10,9,1,adj_6_6,schema_learning,img/targets/BOSS/downsized/bun.jpg,10,9,playground,34,113494,0.0-0.0-0.34,3,3,0,1
48652,1564,7,7,1,adj_6_6,schema_learning,img/targets/BOSS/downsized/bulletbelt.jpg,7,7,playground,35,116583,0.0-0.0-0.35,3,3,0,1
48652,1502,10,9,1,adj_6_6,schema_learning,img/targets/BOSS/downsized/bun.jpg,10,9,playground,36,119603,0.0-0.0-0.36,3,3,0,1
48652,1896,8,4,0,adj_6_6,schema_learning,img/targets/BOSS/downsized/bulldozer.jpg,9,4,playground,37,123023,0.0-0.0-0.37,3,3,1,1
48652,1835,7,7,1,adj_6_6,schema_learning,img/targets/BOSS/downsized/bulletbelt.jpg,7,7,playground,38,126369,0.0-0.0-0.38,3,3,0,1
48652,2074,3,6,1,adj_6_6,schema_learning,img/targets/BOSS/downsized/bullet.jpg,3,6,playground,39,129961,0.0-0.0-0.39,3,3,0,1
48652,1686,5,10,1,adj_6_6,schema_learning,img/targets/BOSS/downsized/butterfly.jpg,5,10,playground,40,133163,0.0-0.0-0.40,3,3,0,1
48652,1944,8,7,0,adj_6_6,schema_learning,img/targets/BOSS/downsized/bulletbelt.jpg,7,7,playground,41,136633,0.0-0.0-0.41,3,3,-1,1
48652,1531,3,6,1,adj_6_6,schema_learning,img/targets/BOSS/downsized/bullet.jpg,3,6,playground,42,139683,0.0-0.0-0.42,3,3,0,1
48652,1585,11,10,0,adj_6_6,schema_learning,img/targets/BOSS/downsized/bun.jpg,10,9,playground,43,142783,0.0-0.0-0.43,3,3,-2,0
48652,1424,10,4,0,adj_6_6,schema_learning,img/targets/BOSS/downsized/bulldozer.jpg,9,4,playground,44,145723,0.0-0.0-0.44,3,3,-1,1
48652,1694,6,3,1,adj_6_6,schema_learning,img/targets/BOSS/downsized/buffaloskull.jpg,6,3,playground,45,148923,0.0-0.0-0.45,3,3,0,1
48652,1945,7,7,1,adj_6_6,schema_learning,img/targets/BOSS/downsized/bulletbelt.jpg,7,7,playground,46,152384,0.0-0.0-0.46,3,3,0,1
48652,1658,10,9,1,adj_6_6,schema_learning,img/targets/BOSS/downsized/bun.jpg,10,9,playground,47,155563,0.0-0.0-0.47,3,3,0,1
48652,1517,7,7,1,adj_6_6,schema_learning,img/targets/BOSS/downsized/bulletbelt.jpg,7,7,playground,48,158603,0.0-0.0-0.48,3,3,0,1
48652,2075,9,4,1,adj_6_6,schema_learning,img/targets/BOSS/downsized/bulldozer.jpg,9,4,playground,49,162194,0.0-0.0-0.49,3,3,0,1
48652,2218,5,10,1,adj_6_6,schema_learning,img/targets/BOSS/downsized/butterfly.jpg,5,10,playground,50,165923,0.0-0.0-0.50,3,3,0,1
48652,2079,6,3,1,adj_6_6,schema_learning,img/targets/BOSS/downsized/buffaloskull.jpg,6,3,playground,51,169513,0.0-0.0-0.51,3,3,0,1
48652,1862,5,10,1,adj_6_6,schema_learning,img/targets/BOSS/downsized/butterfly.jpg,5,10,playground,52,172903,0.0-0.0-0.52,3,3,0,1
48652,1891,3,6,1,adj_6_6,schema_learning,img/targets/BOSS/downsized/bullet.jpg,3,6,playground,53,176303,0.0-0.0-0.53,3,3,0,1
48652,1798,5,10,1,adj_6_6,schema_learning,img/targets/BOSS/downsized/butterfly.jpg,5,10,playground,54,179612,0.0-0.0-0.54,3,3,0,1
48652,2716,10,9,1,adj_6_6,schema_learning,img/targets/BOSS/downsized/bun.jpg,10,9,playground,55,183840,0.0-0.0-0.55,3,3,0,1
48652,1504,7,7,1,adj_6_6,schema_learning,img/targets/BOSS/downsized/bulletbelt.jpg,7,7,playground,56,186863,0.0-0.0-0.56,3,3,0,1
48652,1887,6,3,1,adj_6_6,schema_learning,img/targets/BOSS/downsized/buffaloskull.jpg,6,3,playground,57,190283,0.0-0.0-0.57,3,3,0,1
48652,1713,9,9,0,adj_6_6,schema_learning,img/targets/BOSS/downsized/bun.jpg,10,9,playground,58,193523,0.0-0.0-0.58,3,3,1,1
48652,1547,6,3,1,adj_6_6,schema_learning,img/targets/BOSS/downsized/buffaloskull.jpg,6,3,playground,59,196603,0.0-0.0-0.59,3,3,0,1
48652,1959,7,6,0,adj_6_6,new_pa_learning,img/targets/BOSS/downsized/callbell.jpg,10,4,playground,0,2967,0.0-0.0-0.0,4,1,1,1
48652,1450,10,9,0,adj_6_6,new_pa_learning,img/targets/BOSS/downsized/campfire.jpg,4,5,playground,1,5929,0.0-0.0-0.1,4,1,-10,0
48652,1573,9,4,0,adj_6_6,new_pa_learning,img/targets/BOSS/downsized/callbell.jpg,10,4,playground,2,9013,0.0-0.0-0.2,4,1,1,1
48652,1921,5,3,0,adj_6_6,new_pa_learning,img/targets/BOSS/downsized/car.jpg,8,8,playground,3,12456,0.0-0.0-0.3,4,1,8,0
48652,1445,6,7,0,adj_6_6,new_pa_learning,img/targets/BOSS/downsized/cactus.jpg,8,2,playground,4,15422,0.0-0.0-0.4,4,1,-3,0
48652,1499,10,4,1,adj_6_6,new_pa_learning,img/targets/BOSS/downsized/callbell.jpg,10,4,playground,5,18436,0.0-0.0-0.5,4,1,0,1
48652,2099,5,10,0,adj_6_6,new_pa_learning,img/targets/BOSS/downsized/candelabra.jpg,11,7,playground,6,22056,0.0-0.0-0.6,4,1,3,0
48652,1415,11,10,0,adj_6_6,new_pa_learning,img/targets/BOSS/downsized/caribou02.jpg,3,9,playground,7,24986,0.0-0.0-0.7,4,1,-9,0
48652,2081,5,4,0,adj_6_6,new_pa_learning,img/targets/BOSS/downsized/campfire.jpg,4,5,playground,8,28587,0.0-0.0-0.8,4,1,0,1
48652,2342,4,8,0,adj_6_6,new_pa_learning,img/targets/BOSS/downsized/caribou02.jpg,3,9,playground,9,32456,0.0-0.0-0.9,4,1,0,1
48652,2231,11,6,0,adj_6_6,new_pa_learning,img/targets/BOSS/downsized/campfire.jpg,4,5,playground,10,36206,0.0-0.0-0.10,4,1,-8,0
48652,1940,10,4,1,adj_6_6,new_pa_learning,img/targets/BOSS/downsized/callbell.jpg,10,4,playground,11,39676,0.0-0.0-0.11,4,1,0,1
48652,NA,NA,NA,NA,adj_6_6,new_pa_learning,img/targets/BOSS/downsized/caribou02.jpg,3,9,playground,12,44205,0.0-0.0-0.12,4,1,NA,0
48652,1618,10,4,1,adj_6_6,new_pa_learning,img/targets/BOSS/downsized/callbell.jpg,10,4,playground,13,47346,0.0-0.0-0.13,4,1,0,1
48652,2153,6,4,0,adj_6_6,new_pa_learning,img/targets/BOSS/downsized/cactus.jpg,8,2,playground,14,51033,0.0-0.0-0.14,4,1,0,1
48652,1947,10,9,0,adj_6_6,new_pa_learning,img/targets/BOSS/downsized/car.jpg,8,8,playground,15,54496,0.0-0.0-0.15,4,1,-3,0
48652,1580,3,9,1,adj_6_6,new_pa_learning,img/targets/BOSS/downsized/caribou02.jpg,3,9,playground,16,57616,0.0-0.0-0.16,4,1,0,1
48652,1690,8,1,0,adj_6_6,new_pa_learning,img/targets/BOSS/downsized/cactus.jpg,8,2,playground,17,60834,0.0-0.0-0.17,4,1,1,1
48652,2695,5,9,0,adj_6_6,new_pa_learning,img/targets/BOSS/downsized/candelabra.jpg,11,7,playground,18,65056,0.0-0.0-0.18,4,1,4,0
48652,2128,4,4,0,adj_6_6,new_pa_learning,img/targets/BOSS/downsized/campfire.jpg,4,5,playground,19,68696,0.0-0.0-0.19,4,1,1,1
48652,1556,9,2,0,adj_6_6,new_pa_learning,img/targets/BOSS/downsized/cactus.jpg,8,2,playground,20,71766,0.0-0.0-0.20,4,1,-1,1
48652,1161,3,10,0,adj_6_6,new_pa_learning,img/targets/BOSS/downsized/caribou02.jpg,3,9,playground,21,74447,0.0-0.0-0.21,4,1,-1,1
48652,2132,11,6,0,adj_6_6,new_pa_learning,img/targets/BOSS/downsized/candelabra.jpg,11,7,playground,22,78106,0.0-0.0-0.22,4,1,1,1
48652,2651,4,5,1,adj_6_6,new_pa_learning,img/targets/BOSS/downsized/campfire.jpg,4,5,playground,23,82286,0.0-0.0-0.23,4,1,0,1
48652,1676,9,2,0,adj_6_6,new_pa_learning,img/targets/BOSS/downsized/cactus.jpg,8,2,playground,24,85476,0.0-0.0-0.24,4,1,-1,1
48652,1155,10,4,1,adj_6_6,new_pa_learning,img/targets/BOSS/downsized/callbell.jpg,10,4,playground,25,88155,0.0-0.0-0.25,4,1,0,1
48652,1582,11,7,1,adj_6_6,new_pa_learning,img/targets/BOSS/downsized/candelabra.jpg,11,7,playground,26,91266,0.0-0.0-0.26,4,1,0,1
48652,1766,4,6,0,adj_6_6,new_pa_learning,img/targets/BOSS/downsized/campfire.jpg,4,5,playground,27,94556,0.0-0.0-0.27,4,1,-1,1
48652,2400,11,7,1,adj_6_6,new_pa_learning,img/targets/BOSS/downsized/candelabra.jpg,11,7,playground,28,98476,0.0-0.0-0.28,4,1,0,1
48652,2399,8,8,1,adj_6_6,new_pa_learning,img/targets/BOSS/downsized/car.jpg,8,8,playground,29,102397,0.0-0.0-0.29,4,1,0,1
48652,1923,3,9,1,adj_6_6,new_pa_learning,img/targets/BOSS/downsized/caribou02.jpg,3,9,playground,30,105845,0.0-0.0-0.30,4,1,0,1
48652,2846,11,7,1,adj_6_6,new_pa_learning,img/targets/BOSS/downsized/candelabra.jpg,11,7,playground,31,110200,0.0-0.0-0.31,4,1,0,1
48652,NA,NA,NA,NA,adj_6_6,new_pa_learning,img/targets/BOSS/downsized/car.jpg,8,8,playground,32,114738,0.0-0.0-0.32,4,1,NA,0
48652,2445,10,2,0,adj_6_6,new_pa_learning,img/targets/BOSS/downsized/cactus.jpg,8,2,playground,33,118706,0.0-0.0-0.33,4,1,-2,0
48652,1937,8,9,0,adj_6_6,new_pa_learning,img/targets/BOSS/downsized/car.jpg,8,8,playground,34,122167,0.0-0.0-0.34,4,1,-1,1
48652,1827,4,5,1,adj_6_6,new_pa_learning,img/targets/BOSS/downsized/campfire.jpg,4,5,playground,35,125516,0.0-0.0-0.35,4,1,0,1
48652,2994,9,2,0,adj_6_6,new_pa_learning,img/targets/BOSS/downsized/cactus.jpg,8,2,playground,36,130037,0.0-0.0-0.36,4,1,-1,1
48652,1894,11,7,1,adj_6_6,new_pa_learning,img/targets/BOSS/downsized/candelabra.jpg,11,7,playground,37,133456,0.0-0.0-0.37,4,1,0,1
48652,2159,10,4,1,adj_6_6,new_pa_learning,img/targets/BOSS/downsized/callbell.jpg,10,4,playground,38,137156,0.0-0.0-0.38,4,1,0,1
48652,2339,11,7,1,adj_6_6,new_pa_learning,img/targets/BOSS/downsized/candelabra.jpg,11,7,playground,39,141026,0.0-0.0-0.39,4,1,0,1
48652,1765,4,5,1,adj_6_6,new_pa_learning,img/targets/BOSS/downsized/campfire.jpg,4,5,playground,40,144316,0.0-0.0-0.40,4,1,0,1
48652,1472,8,2,1,adj_6_6,new_pa_learning,img/targets/BOSS/downsized/cactus.jpg,8,2,playground,41,147301,0.0-0.0-0.41,4,1,0,1
48652,1577,3,9,1,adj_6_6,new_pa_learning,img/targets/BOSS/downsized/caribou02.jpg,3,9,playground,42,150406,0.0-0.0-0.42,4,1,0,1
48652,1973,11,7,1,adj_6_6,new_pa_learning,img/targets/BOSS/downsized/candelabra.jpg,11,7,playground,43,153906,0.0-0.0-0.43,4,1,0,1
48652,1379,10,4,1,adj_6_6,new_pa_learning,img/targets/BOSS/downsized/callbell.jpg,10,4,playground,44,156816,0.0-0.0-0.44,4,1,0,1
48652,1518,8,8,1,adj_6_6,new_pa_learning,img/targets/BOSS/downsized/car.jpg,8,8,playground,45,159876,0.0-0.0-0.45,4,1,0,1
48652,1393,3,9,1,adj_6_6,new_pa_learning,img/targets/BOSS/downsized/caribou02.jpg,3,9,playground,46,162785,0.0-0.0-0.46,4,1,0,1
48652,1210,10,4,1,adj_6_6,new_pa_learning,img/targets/BOSS/downsized/callbell.jpg,10,4,playground,47,165506,0.0-0.0-0.47,4,1,0,1
48652,1460,8,7,0,adj_6_6,new_pa_learning,img/targets/BOSS/downsized/car.jpg,8,8,playground,48,168503,0.0-0.0-0.48,4,1,1,1
48652,1322,4,5,1,adj_6_6,new_pa_learning,img/targets/BOSS/downsized/campfire.jpg,4,5,playground,49,171344,0.0-0.0-0.49,4,1,0,1
48652,1640,8,2,1,adj_6_6,new_pa_learning,img/targets/BOSS/downsized/cactus.jpg,8,2,playground,50,174506,0.0-0.0-0.50,4,1,0,1
48652,1243,3,9,1,adj_6_6,new_pa_learning,img/targets/BOSS/downsized/caribou02.jpg,3,9,playground,51,177277,0.0-0.0-0.51,4,1,0,1
48652,1379,9,4,0,adj_6_6,new_pa_learning,img/targets/BOSS/downsized/callbell.jpg,10,4,playground,52,180186,0.0-0.0-0.52,4,1,1,1
48652,1401,4,5,1,adj_6_6,new_pa_learning,img/targets/BOSS/downsized/campfire.jpg,4,5,playground,53,183116,0.0-0.0-0.53,4,1,0,1
48652,1662,8,8,1,adj_6_6,new_pa_learning,img/targets/BOSS/downsized/car.jpg,8,8,playground,54,186316,0.0-0.0-0.54,4,1,0,1
48652,1482,11,7,1,adj_6_6,new_pa_learning,img/targets/BOSS/downsized/candelabra.jpg,11,7,playground,55,189312,0.0-0.0-0.55,4,1,0,1
48652,1615,8,8,1,adj_6_6,new_pa_learning,img/targets/BOSS/downsized/car.jpg,8,8,playground,56,192456,0.0-0.0-0.56,4,1,0,1
48652,1134,2,9,0,adj_6_6,new_pa_learning,img/targets/BOSS/downsized/caribou02.jpg,3,9,playground,57,195106,0.0-0.0-0.57,4,1,1,1
48652,1656,8,2,1,adj_6_6,new_pa_learning,img/targets/BOSS/downsized/cactus.jpg,8,2,playground,58,198276,0.0-0.0-0.58,4,1,0,1
48652,1644,8,8,1,adj_6_6,new_pa_learning,img/targets/BOSS/downsized/car.jpg,8,8,playground,59,201436,0.0-0.0-0.59,4,1,0,1
zibzab,1750.175,3,6,1,adj_6_6,schema_learning,img/targets/BOSS/downsized/bullet.jpg,3,6,playground,0,2763,0.0-0.0-0.0,1,1,0,1
zibzab,1287.945,6,6,0,adj_6_6,schema_learning,img/targets/BOSS/downsized/bulletbelt.jpg,7,7,playground,1,5579,0.0-0.0-0.1,1,1,2,0
zibzab,1196.715,6,6,0,adj_6_6,schema_learning,img/targets/BOSS/downsized/bullet.jpg,3,6,playground,2,8299,0.0-0.0-0.2,1,1,-3,0
zibzab,1706.545,8,9,0,adj_6_6,schema_learning,img/targets/BOSS/downsized/bun.jpg,10,9,playground,3,11520,0.0-0.0-0.3,1,1,2,0
zibzab,2139.56,6,3,1,adj_6_6,schema_learning,img/targets/BOSS/downsized/buffaloskull.jpg,6,3,playground,4,15180,0.0-0.0-0.4,1,1,0,1
zibzab,1181.035,6,7,0,adj_6_6,schema_learning,img/targets/BOSS/downsized/bulletbelt.jpg,7,7,playground,5,17869,0.0-0.0-0.5,1,1,1,1
zibzab,2821.99,2,10,0,adj_6_6,schema_learning,img/targets/BOSS/downsized/bulldozer.jpg,9,4,playground,6,22243,0.0-0.0-0.6,1,1,1,1
zibzab,1538.29,10,9,1,adj_6_6,schema_learning,img/targets/BOSS/downsized/bun.jpg,10,9,playground,7,25303,0.0-0.0-0.7,1,1,0,1
zibzab,1480.8,3,6,1,adj_6_6,schema_learning,img/targets/BOSS/downsized/bullet.jpg,3,6,playground,8,28303,0.0-0.0-0.8,1,1,0,1
zibzab,1835.49,9,4,1,adj_6_6,schema_learning,img/targets/BOSS/downsized/bulldozer.jpg,9,4,playground,9,31651,0.0-0.0-0.9,1,1,0,1
zibzab,1814.54,6,9,0,adj_6_6,schema_learning,img/targets/BOSS/downsized/butterfly.jpg,5,10,playground,10,34982,0.0-0.0-0.10,1,1,0,1
zibzab,1426.265,3,6,1,adj_6_6,schema_learning,img/targets/BOSS/downsized/bullet.jpg,3,6,playground,11,37927,0.0-0.0-0.11,1,1,0,1
zibzab,1335.925,7,7,1,adj_6_6,schema_learning,img/targets/BOSS/downsized/bulletbelt.jpg,7,7,playground,12,40773,0.0-0.0-0.12,1,1,0,1
zibzab,1376.845,5,10,1,adj_6_6,schema_learning,img/targets/BOSS/downsized/butterfly.jpg,5,10,playground,13,43661,0.0-0.0-0.13,1,1,0,1
zibzab,1414.7,10,10,0,adj_6_6,schema_learning,img/targets/BOSS/downsized/bun.jpg,10,9,playground,14,46590,0.0-0.0-0.14,1,1,-1,1
zibzab,1404.84,5,9,0,adj_6_6,schema_learning,img/targets/BOSS/downsized/butterfly.jpg,5,10,playground,15,49507,0.0-0.0-0.15,1,1,1,1
zibzab,1331.59,9,9,0,adj_6_6,schema_learning,img/targets/BOSS/downsized/bun.jpg,10,9,playground,16,52348,0.0-0.0-0.16,1,1,1,1
zibzab,1988.97,4,10,0,adj_6_6,schema_learning,img/targets/BOSS/downsized/butterfly.jpg,5,10,playground,17,55845,0.0-0.0-0.17,1,1,1,1
zibzab,1725.18,6,3,1,adj_6_6,schema_learning,img/targets/BOSS/downsized/buffaloskull.jpg,6,3,playground,18,59083,0.0-0.0-0.18,1,1,0,1
zibzab,1361.98,9,9,0,adj_6_6,schema_learning,img/targets/BOSS/downsized/bun.jpg,10,9,playground,19,61958,0.0-0.0-0.19,1,1,1,1
zibzab,1507.735,9,4,1,adj_6_6,schema_learning,img/targets/BOSS/downsized/bulldozer.jpg,9,4,playground,20,64976,0.0-0.0-0.20,1,1,0,1
zibzab,2098,5,10,1,adj_6_6,schema_learning,img/targets/BOSS/downsized/butterfly.jpg,5,10,playground,21,68588,0.0-0.0-0.21,1,1,0,1
zibzab,1636.705,6,3,1,adj_6_6,schema_learning,img/targets/BOSS/downsized/buffaloskull.jpg,6,3,playground,22,71737,0.0-0.0-0.22,1,1,0,1
zibzab,1552.79,8,7,0,adj_6_6,schema_learning,img/targets/BOSS/downsized/bulletbelt.jpg,7,7,playground,23,74807,0.0-0.0-0.23,1,1,-1,1
zibzab,1426.88,10,9,1,adj_6_6,schema_learning,img/targets/BOSS/downsized/bun.jpg,10,9,playground,24,77746,0.0-0.0-0.24,1,1,0,1
zibzab,1916.325,3,6,1,adj_6_6,schema_learning,img/targets/BOSS/downsized/bullet.jpg,3,6,playground,25,81172,0.0-0.0-0.25,1,1,0,1
zibzab,2109.58,7,7,1,adj_6_6,schema_learning,img/targets/BOSS/downsized/bulletbelt.jpg,7,7,playground,26,84793,0.0-0.0-0.26,1,1,0,1
zibzab,1640.45,3,6,1,adj_6_6,schema_learning,img/targets/BOSS/downsized/bullet.jpg,3,6,playground,27,87941,0.0-0.0-0.27,1,1,0,1
zibzab,1451.46,9,4,1,adj_6_6,schema_learning,img/targets/BOSS/downsized/bulldozer.jpg,9,4,playground,28,90904,0.0-0.0-0.28,1,1,0,1
zibzab,1645.385,3,6,1,adj_6_6,schema_learning,img/targets/BOSS/downsized/bullet.jpg,3,6,playground,29,94058,0.0-0.0-0.29,1,1,0,1
zibzab,1734.855,7,6,0,adj_6_6,schema_learning,img/targets/BOSS/downsized/bulletbelt.jpg,7,7,playground,30,97300,0.0-0.0-0.30,1,1,1,1
zibzab,1357.82,6,4,0,adj_6_6,schema_learning,img/targets/BOSS/downsized/buffaloskull.jpg,6,3,playground,31,100167,0.0-0.0-0.31,1,1,-1,1
zibzab,1402.34,7,7,1,adj_6_6,schema_learning,img/targets/BOSS/downsized/bulletbelt.jpg,7,7,playground,32,103082,0.0-0.0-0.32,1,1,0,1
zibzab,1521.45,6,3,1,adj_6_6,schema_learning,img/targets/BOSS/downsized/buffaloskull.jpg,6,3,playground,33,106116,0.0-0.0-0.33,1,1,0,1
zibzab,1403.285,6,9,0,adj_6_6,schema_learning,img/targets/BOSS/downsized/butterfly.jpg,5,10,playground,34,109030,0.0-0.0-0.34,1,1,0,1
zibzab,2031.27,3,6,1,adj_6_6,schema_learning,img/targets/BOSS/downsized/bullet.jpg,3,6,playground,35,112575,0.0-0.0-0.35,1,1,0,1
zibzab,2049.245,7,7,1,adj_6_6,schema_learning,img/targets/BOSS/downsized/bulletbelt.jpg,7,7,playground,36,116137,0.0-0.0-0.36,1,1,0,1
zibzab,1769.465,6,9,0,adj_6_6,schema_learning,img/targets/BOSS/downsized/butterfly.jpg,5,10,playground,37,119419,0.0-0.0-0.37,1,1,0,1
zibzab,1438.195,9,9,0,adj_6_6,schema_learning,img/targets/BOSS/downsized/bun.jpg,10,9,playground,38,122364,0.0-0.0-0.38,1,1,1,1
zibzab,1886.715,6,3,1,adj_6_6,schema_learning,img/targets/BOSS/downsized/buffaloskull.jpg,6,3,playground,39,125764,0.0-0.0-0.39,1,1,0,1
zibzab,1515.525,9,4,1,adj_6_6,schema_learning,img/targets/BOSS/downsized/bulldozer.jpg,9,4,playground,40,128792,0.0-0.0-0.40,1,1,0,1
zibzab,1683.435,3,5,0,adj_6_6,schema_learning,img/targets/BOSS/downsized/bullet.jpg,3,6,playground,41,131985,0.0-0.0-0.41,1,1,1,1
zibzab,1568.15,9,9,0,adj_6_6,schema_learning,img/targets/BOSS/downsized/bun.jpg,10,9,playground,42,135066,0.0-0.0-0.42,1,1,1,1
zibzab,1476.455,9,4,1,adj_6_6,schema_learning,img/targets/BOSS/downsized/bulldozer.jpg,9,4,playground,43,138054,0.0-0.0-0.43,1,1,0,1
zibzab,1706.885,6,3,1,adj_6_6,schema_learning,img/targets/BOSS/downsized/buffaloskull.jpg,6,3,playground,44,141272,0.0-0.0-0.44,1,1,0,1
zibzab,1612.725,7,7,1,adj_6_6,schema_learning,img/targets/BOSS/downsized/bulletbelt.jpg,7,7,playground,45,144392,0.0-0.0-0.45,1,1,0,1
zibzab,1811.34,5,10,1,adj_6_6,schema_learning,img/targets/BOSS/downsized/butterfly.jpg,5,10,playground,46,147712,0.0-0.0-0.46,1,1,0,1
zibzab,1669.565,9,9,0,adj_6_6,schema_learning,img/targets/BOSS/downsized/bun.jpg,10,9,playground,47,150889,0.0-0.0-0.47,1,1,1,1
zibzab,1656.21,7,3,0,adj_6_6,schema_learning,img/targets/BOSS/downsized/buffaloskull.jpg,6,3,playground,48,154056,0.0-0.0-0.48,1,1,-1,1
zibzab,2015.975,8,4,0,adj_6_6,schema_learning,img/targets/BOSS/downsized/bulldozer.jpg,9,4,playground,49,157583,0.0-0.0-0.49,1,1,1,1
zibzab,1590.11,9,9,0,adj_6_6,schema_learning,img/targets/BOSS/downsized/bun.jpg,10,9,playground,50,160689,0.0-0.0-0.50,1,1,1,1
zibzab,1420.38,9,4,1,adj_6_6,schema_learning,img/targets/BOSS/downsized/bulldozer.jpg,9,4,playground,51,163618,0.0-0.0-0.51,1,1,0,1
zibzab,1397.055,7,7,1,adj_6_6,schema_learning,img/targets/BOSS/downsized/bulletbelt.jpg,7,7,playground,52,166530,0.0-0.0-0.52,1,1,0,1
zibzab,1696.315,6,3,1,adj_6_6,schema_learning,img/targets/BOSS/downsized/buffaloskull.jpg,6,3,playground,53,169737,0.0-0.0-0.53,1,1,0,1
zibzab,1710.26,5,10,1,adj_6_6,schema_learning,img/targets/BOSS/downsized/butterfly.jpg,5,10,playground,54,172958,0.0-0.0-0.54,1,1,0,1
zibzab,1857.385,9,4,1,adj_6_6,schema_learning,img/targets/BOSS/downsized/bulldozer.jpg,9,4,playground,55,176340,0.0-0.0-0.55,1,1,0,1
zibzab,1772.23,6,3,1,adj_6_6,schema_learning,img/targets/BOSS/downsized/buffaloskull.jpg,6,3,playground,56,179626,0.0-0.0-0.56,1,1,0,1
zibzab,1872.425,9,4,1,adj_6_6,schema_learning,img/targets/BOSS/downsized/bulldozer.jpg,9,4,playground,57,183009,0.0-0.0-0.57,1,1,0,1
zibzab,1969.49,3,6,1,adj_6_6,schema_learning,img/targets/BOSS/downsized/bullet.jpg,3,6,playground,58,186489,0.0-0.0-0.58,1,1,0,1
zibzab,1909.57,5,10,1,adj_6_6,schema_learning,img/targets/BOSS/downsized/butterfly.jpg,5,10,playground,59,189912,0.0-0.0-0.59,1,1,0,1
zibzab,2018.515,5,9,0,adj_6_6,schema_learning,img/targets/BOSS/downsized/butterfly.jpg,5,10,playground,0,3037,0.0-0.0-0.0,2,2,1,1
zibzab,1514.85,9,9,0,adj_6_6,schema_learning,img/targets/BOSS/downsized/bun.jpg,10,9,playground,1,6069,0.0-0.0-0.1,2,2,1,1
zibzab,1829.57,6,3,1,adj_6_6,schema_learning,img/targets/BOSS/downsized/buffaloskull.jpg,6,3,playground,2,9407,0.0-0.0-0.2,2,2,0,1
zibzab,1344.975,7,7,1,adj_6_6,schema_learning,img/targets/BOSS/downsized/bulletbelt.jpg,7,7,playground,3,12268,0.0-0.0-0.3,2,2,0,1
zibzab,1450.585,9,9,0,adj_6_6,schema_learning,img/targets/BOSS/downsized/bun.jpg,10,9,playground,4,15225,0.0-0.0-0.4,2,2,1,1
zibzab,1708.6,3,5,0,adj_6_6,schema_learning,img/targets/BOSS/downsized/bullet.jpg,3,6,playground,5,18449,0.0-0.0-0.5,2,2,1,1
zibzab,1565.06,9,4,1,adj_6_6,schema_learning,img/targets/BOSS/downsized/bulldozer.jpg,9,4,playground,6,21536,0.0-0.0-0.6,2,2,0,1
zibzab,1415.93,7,7,1,adj_6_6,schema_learning,img/targets/BOSS/downsized/bulletbelt.jpg,7,7,playground,7,24467,0.0-0.0-0.7,2,2,0,1
zibzab,1669.82,9,9,0,adj_6_6,schema_learning,img/targets/BOSS/downsized/bun.jpg,10,9,playground,8,27650,0.0-0.0-0.8,2,2,1,1
zibzab,1983.16,5,10,1,adj_6_6,schema_learning,img/targets/BOSS/downsized/butterfly.jpg,5,10,playground,9,31140,0.0-0.0-0.9,2,2,0,1
zibzab,1992.17,9,4,1,adj_6_6,schema_learning,img/targets/BOSS/downsized/bulldozer.jpg,9,4,playground,10,34650,0.0-0.0-0.10,2,2,0,1
zibzab,2191.645,4,10,0,adj_6_6,schema_learning,img/targets/BOSS/downsized/butterfly.jpg,5,10,playground,11,38354,0.0-0.0-0.11,2,2,1,1
zibzab,2406.765,6,3,1,adj_6_6,schema_learning,img/targets/BOSS/downsized/buffaloskull.jpg,6,3,playground,12,42273,0.0-0.0-0.12,2,2,0,1
zibzab,2089.05,10,9,1,adj_6_6,schema_learning,img/targets/BOSS/downsized/bun.jpg,10,9,playground,13,45876,0.0-0.0-0.13,2,2,0,1
zibzab,2330.46,5,10,1,adj_6_6,schema_learning,img/targets/BOSS/downsized/butterfly.jpg,5,10,playground,14,49718,0.0-0.0-0.14,2,2,0,1
zibzab,1602.235,6,3,1,adj_6_6,schema_learning,img/targets/BOSS/downsized/buffaloskull.jpg,6,3,playground,15,52833,0.0-0.0-0.15,2,2,0,1
zibzab,1811.87,9,4,1,adj_6_6,schema_learning,img/targets/BOSS/downsized/bulldozer.jpg,9,4,playground,16,56190,0.0-0.0-0.16,2,2,0,1
zibzab,1719.565,6,3,1,adj_6_6,schema_learning,img/targets/BOSS/downsized/buffaloskull.jpg,6,3,playground,17,59419,0.0-0.0-0.17,2,2,0,1
zibzab,1763.715,5,10,1,adj_6_6,schema_learning,img/targets/BOSS/downsized/butterfly.jpg,5,10,playground,18,62704,0.0-0.0-0.18,2,2,0,1
zibzab,1777.485,9,9,0,adj_6_6,schema_learning,img/targets/BOSS/downsized/bun.jpg,10,9,playground,19,65996,0.0-0.0-0.19,2,2,1,1
zibzab,NA,NA,NA,NA,adj_6_6,schema_learning,img/targets/BOSS/downsized/butterfly.jpg,5,10,playground,20,70511,0.0-0.0-0.20,2,2,NA,0
zibzab,1352.48,7,7,1,adj_6_6,schema_learning,img/targets/BOSS/downsized/bulletbelt.jpg,7,7,playground,21,73378,0.0-0.0-0.21,2,2,0,1
zibzab,1673.81,6,3,1,adj_6_6,schema_learning,img/targets/BOSS/downsized/buffaloskull.jpg,6,3,playground,22,76565,0.0-0.0-0.22,2,2,0,1
zibzab,1461.38,5,10,1,adj_6_6,schema_learning,img/targets/BOSS/downsized/butterfly.jpg,5,10,playground,23,79541,0.0-0.0-0.23,2,2,0,1
zibzab,1837.395,9,9,0,adj_6_6,schema_learning,img/targets/BOSS/downsized/bun.jpg,10,9,playground,24,82890,0.0-0.0-0.24,2,2,1,1
zibzab,1821.295,9,4,1,adj_6_6,schema_learning,img/targets/BOSS/downsized/bulldozer.jpg,9,4,playground,25,86224,0.0-0.0-0.25,2,2,0,1
zibzab,2181.695,3,6,1,adj_6_6,schema_learning,img/targets/BOSS/downsized/bullet.jpg,3,6,playground,26,89919,0.0-0.0-0.26,2,2,0,1
zibzab,1672.15,10,9,1,adj_6_6,schema_learning,img/targets/BOSS/downsized/bun.jpg,10,9,playground,27,93103,0.0-0.0-0.27,2,2,0,1
zibzab,1546.135,9,4,1,adj_6_6,schema_learning,img/targets/BOSS/downsized/bulldozer.jpg,9,4,playground,28,96163,0.0-0.0-0.28,2,2,0,1
zibzab,1796.815,9,9,0,adj_6_6,schema_learning,img/targets/BOSS/downsized/bun.jpg,10,9,playground,29,99474,0.0-0.0-0.29,2,2,1,1
zibzab,2012.32,7,7,1,adj_6_6,schema_learning,img/targets/BOSS/downsized/bulletbelt.jpg,7,7,playground,30,102999,0.0-0.0-0.30,2,2,0,1
zibzab,1651.005,3,6,1,adj_6_6,schema_learning,img/targets/BOSS/downsized/bullet.jpg,3,6,playground,31,106159,0.0-0.0-0.31,2,2,0,1
zibzab,1833.26,7,7,1,adj_6_6,schema_learning,img/targets/BOSS/downsized/bulletbelt.jpg,7,7,playground,32,109499,0.0-0.0-0.32,2,2,0,1
zibzab,2655.24,9,4,1,adj_6_6,schema_learning,img/targets/BOSS/downsized/bulldozer.jpg,9,4,playground,33,113669,0.0-0.0-0.33,2,2,0,1
zibzab,2014.5,3,6,1,adj_6_6,schema_learning,img/targets/BOSS/downsized/bullet.jpg,3,6,playground,34,117195,0.0-0.0-0.34,2,2,0,1
zibzab,2229.02,4,10,0,adj_6_6,schema_learning,img/targets/BOSS/downsized/butterfly.jpg,5,10,playground,35,120939,0.0-0.0-0.35,2,2,1,1
zibzab,1845.71,10,4,0,adj_6_6,schema_learning,img/targets/BOSS/downsized/bulldozer.jpg,9,4,playground,36,124299,0.0-0.0-0.36,2,2,-1,1
zibzab,1671.63,3,6,1,adj_6_6,schema_learning,img/targets/BOSS/downsized/bullet.jpg,3,6,playground,37,127480,0.0-0.0-0.37,2,2,0,1
zibzab,1443.055,4,10,0,adj_6_6,schema_learning,img/targets/BOSS/downsized/butterfly.jpg,5,10,playground,38,130436,0.0-0.0-0.38,2,2,1,1
zibzab,1768.775,10,9,1,adj_6_6,schema_learning,img/targets/BOSS/downsized/bun.jpg,10,9,playground,39,133729,0.0-0.0-0.39,2,2,0,1
zibzab,2231.3,6,3,1,adj_6_6,schema_learning,img/targets/BOSS/downsized/buffaloskull.jpg,6,3,playground,40,137471,0.0-0.0-0.40,2,2,0,1
zibzab,1763.7,9,4,1,adj_6_6,schema_learning,img/targets/BOSS/downsized/bulldozer.jpg,9,4,playground,41,140744,0.0-0.0-0.41,2,2,0,1
zibzab,1699.76,6,7,0,adj_6_6,schema_learning,img/targets/BOSS/downsized/bulletbelt.jpg,7,7,playground,42,143957,0.0-0.0-0.42,2,2,1,1
zibzab,1695.49,6,3,1,adj_6_6,schema_learning,img/targets/BOSS/downsized/buffaloskull.jpg,6,3,playground,43,147166,0.0-0.0-0.43,2,2,0,1
zibzab,2047.855,3,6,1,adj_6_6,schema_learning,img/targets/BOSS/downsized/bullet.jpg,3,6,playground,44,150728,0.0-0.0-0.44,2,2,0,1
zibzab,2182.43,6,3,1,adj_6_6,schema_learning,img/targets/BOSS/downsized/buffaloskull.jpg,6,3,playground,45,154421,0.0-0.0-0.45,2,2,0,1
zibzab,2065.92,9,4,1,adj_6_6,schema_learning,img/targets/BOSS/downsized/bulldozer.jpg,9,4,playground,46,158001,0.0-0.0-0.46,2,2,0,1
zibzab,2251.755,3,6,1,adj_6_6,schema_learning,img/targets/BOSS/downsized/bullet.jpg,3,6,playground,47,161761,0.0-0.0-0.47,2,2,0,1
zibzab,1815.84,6,3,1,adj_6_6,schema_learning,img/targets/BOSS/downsized/buffaloskull.jpg,6,3,playground,48,165090,0.0-0.0-0.48,2,2,0,1
zibzab,1760.34,10,9,1,adj_6_6,schema_learning,img/targets/BOSS/downsized/bun.jpg,10,9,playground,49,168362,0.0-0.0-0.49,2,2,0,1
zibzab,2056.395,7,7,1,adj_6_6,schema_learning,img/targets/BOSS/downsized/bulletbelt.jpg,7,7,playground,50,171930,0.0-0.0-0.50,2,2,0,1
zibzab,2302.61,3,6,1,adj_6_6,schema_learning,img/targets/BOSS/downsized/bullet.jpg,3,6,playground,51,175745,0.0-0.0-0.51,2,2,0,1
zibzab,2025.63,6,3,1,adj_6_6,schema_learning,img/targets/BOSS/downsized/buffaloskull.jpg,6,3,playground,52,179280,0.0-0.0-0.52,2,2,0,1
zibzab,1950.075,5,10,1,adj_6_6,schema_learning,img/targets/BOSS/downsized/butterfly.jpg,5,10,playground,53,182739,0.0-0.0-0.53,2,2,0,1
zibzab,1622.52,7,7,1,adj_6_6,schema_learning,img/targets/BOSS/downsized/bulletbelt.jpg,7,7,playground,54,185870,0.0-0.0-0.54,2,2,0,1
zibzab,2076.56,3,5,0,adj_6_6,schema_learning,img/targets/BOSS/downsized/bullet.jpg,3,6,playground,55,189469,0.0-0.0-0.55,2,2,1,1
zibzab,1625.74,9,4,1,adj_6_6,schema_learning,img/targets/BOSS/downsized/bulldozer.jpg,9,4,playground,56,192611,0.0-0.0-0.56,2,2,0,1
zibzab,1610.42,7,7,1,adj_6_6,schema_learning,img/targets/BOSS/downsized/bulletbelt.jpg,7,7,playground,57,195736,0.0-0.0-0.57,2,2,0,1
zibzab,1616.88,3,6,1,adj_6_6,schema_learning,img/targets/BOSS/downsized/bullet.jpg,3,6,playground,58,198872,0.0-0.0-0.58,2,2,0,1
zibzab,1425.515,7,7,1,adj_6_6,schema_learning,img/targets/BOSS/downsized/bulletbelt.jpg,7,7,playground,59,201818,0.0-0.0-0.59,2,2,0,1
zibzab,2266.64,3,6,1,adj_6_6,schema_learning,img/targets/BOSS/downsized/bullet.jpg,3,6,playground,0,3275,0.0-0.0-0.0,3,3,0,1
zibzab,2797.52,8,7,0,adj_6_6,schema_learning,img/targets/BOSS/downsized/bulletbelt.jpg,7,7,playground,1,7587,0.0-0.0-0.1,3,3,-1,1
zibzab,1297.135,9,4,1,adj_6_6,schema_learning,img/targets/BOSS/downsized/bulldozer.jpg,9,4,playground,2,10406,0.0-0.0-0.2,3,3,0,1
zibzab,1729.3,7,7,1,adj_6_6,schema_learning,img/targets/BOSS/downsized/bulletbelt.jpg,7,7,playground,3,13644,0.0-0.0-0.3,3,3,0,1
zibzab,2038.695,3,5,0,adj_6_6,schema_learning,img/targets/BOSS/downsized/bullet.jpg,3,6,playground,4,17200,0.0-0.0-0.4,3,3,1,1
zibzab,2237.64,6,3,1,adj_6_6,schema_learning,img/targets/BOSS/downsized/buffaloskull.jpg,6,3,playground,5,20947,0.0-0.0-0.5,3,3,0,1
zibzab,1764.005,9,4,1,adj_6_6,schema_learning,img/targets/BOSS/downsized/bulldozer.jpg,9,4,playground,6,24231,0.0-0.0-0.6,3,3,0,1
zibzab,2272.21,10,9,1,adj_6_6,schema_learning,img/targets/BOSS/downsized/bun.jpg,10,9,playground,7,28022,0.0-0.0-0.7,3,3,0,1
zibzab,1994.875,6,3,1,adj_6_6,schema_learning,img/targets/BOSS/downsized/buffaloskull.jpg,6,3,playground,8,31535,0.0-0.0-0.8,3,3,0,1
zibzab,2148.875,5,10,1,adj_6_6,schema_learning,img/targets/BOSS/downsized/butterfly.jpg,5,10,playground,9,35192,0.0-0.0-0.9,3,3,0,1
zibzab,1770.9,7,7,1,adj_6_6,schema_learning,img/targets/BOSS/downsized/bulletbelt.jpg,7,7,playground,10,38500,0.0-0.0-0.10,3,3,0,1
zibzab,1727.22,10,9,1,adj_6_6,schema_learning,img/targets/BOSS/downsized/bun.jpg,10,9,playground,11,41741,0.0-0.0-0.11,3,3,0,1
zibzab,1656.825,3,6,1,adj_6_6,schema_learning,img/targets/BOSS/downsized/bullet.jpg,3,6,playground,12,44909,0.0-0.0-0.12,3,3,0,1
zibzab,1688.16,9,5,0,adj_6_6,schema_learning,img/targets/BOSS/downsized/bulldozer.jpg,9,4,playground,13,48108,0.0-0.0-0.13,3,3,-1,1
zibzab,1632.69,3,6,1,adj_6_6,schema_learning,img/targets/BOSS/downsized/bullet.jpg,3,6,playground,14,51257,0.0-0.0-0.14,3,3,0,1
zibzab,1681.395,6,3,1,adj_6_6,schema_learning,img/targets/BOSS/downsized/buffaloskull.jpg,6,3,playground,15,54449,0.0-0.0-0.15,3,3,0,1
zibzab,1472.23,7,7,1,adj_6_6,schema_learning,img/targets/BOSS/downsized/bulletbelt.jpg,7,7,playground,16,57434,0.0-0.0-0.16,3,3,0,1
zibzab,1893.74,5,10,1,adj_6_6,schema_learning,img/targets/BOSS/downsized/butterfly.jpg,5,10,playground,17,60840,0.0-0.0-0.17,3,3,0,1
zibzab,2335.615,9,4,1,adj_6_6,schema_learning,img/targets/BOSS/downsized/bulldozer.jpg,9,4,playground,18,64690,0.0-0.0-0.18,3,3,0,1
zibzab,2046.145,10,9,1,adj_6_6,schema_learning,img/targets/BOSS/downsized/bun.jpg,10,9,playground,19,68249,0.0-0.0-0.19,3,3,0,1
zibzab,NA,NA,NA,NA,adj_6_6,schema_learning,img/targets/BOSS/downsized/butterfly.jpg,5,10,playground,20,72762,0.0-0.0-0.20,3,3,NA,0
zibzab,1818.03,6,3,1,adj_6_6,schema_learning,img/targets/BOSS/downsized/buffaloskull.jpg,6,3,playground,21,76093,0.0-0.0-0.21,3,3,0,1
zibzab,2577.31,9,4,1,adj_6_6,schema_learning,img/targets/BOSS/downsized/bulldozer.jpg,9,4,playground,22,80184,0.0-0.0-0.22,3,3,0,1
zibzab,1900.895,5,10,1,adj_6_6,schema_learning,img/targets/BOSS/downsized/butterfly.jpg,5,10,playground,23,83605,0.0-0.0-0.23,3,3,0,1
zibzab,1816.145,9,4,1,adj_6_6,schema_learning,img/targets/BOSS/downsized/bulldozer.jpg,9,4,playground,24,86931,0.0-0.0-0.24,3,3,0,1
zibzab,2106.875,10,9,1,adj_6_6,schema_learning,img/targets/BOSS/downsized/bun.jpg,10,9,playground,25,90547,0.0-0.0-0.25,3,3,0,1
zibzab,2041.02,9,4,1,adj_6_6,schema_learning,img/targets/BOSS/downsized/bulldozer.jpg,9,4,playground,26,94099,0.0-0.0-0.26,3,3,0,1
zibzab,1658.785,5,10,1,adj_6_6,schema_learning,img/targets/BOSS/downsized/butterfly.jpg,5,10,playground,27,97270,0.0-0.0-0.27,3,3,0,1
zibzab,1836.615,3,6,1,adj_6_6,schema_learning,img/targets/BOSS/downsized/bullet.jpg,3,6,playground,28,100617,0.0-0.0-0.28,3,3,0,1
zibzab,2174.315,6,7,0,adj_6_6,schema_learning,img/targets/BOSS/downsized/bulletbelt.jpg,7,7,playground,29,104309,0.0-0.0-0.29,3,3,1,1
zibzab,2159.045,6,3,1,adj_6_6,schema_learning,img/targets/BOSS/downsized/buffaloskull.jpg,6,3,playground,30,107981,0.0-0.0-0.30,3,3,0,1
zibzab,1718.32,5,10,1,adj_6_6,schema_learning,img/targets/BOSS/downsized/butterfly.jpg,5,10,playground,31,111217,0.0-0.0-0.31,3,3,0,1
zibzab,1849.29,7,7,1,adj_6_6,schema_learning,img/targets/BOSS/downsized/bulletbelt.jpg,7,7,playground,32,114580,0.0-0.0-0.32,3,3,0,1
zibzab,1516.915,6,3,1,adj_6_6,schema_learning,img/targets/BOSS/downsized/buffaloskull.jpg,6,3,playground,33,117610,0.0-0.0-0.33,3,3,0,1
zibzab,1747.74,5,10,1,adj_6_6,schema_learning,img/targets/BOSS/downsized/butterfly.jpg,5,10,playground,34,120868,0.0-0.0-0.34,3,3,0,1
zibzab,1856.885,10,9,1,adj_6_6,schema_learning,img/targets/BOSS/downsized/bun.jpg,10,9,playground,35,124238,0.0-0.0-0.35,3,3,0,1
zibzab,2591.685,3,6,1,adj_6_6,schema_learning,img/targets/BOSS/downsized/bullet.jpg,3,6,playground,36,128342,0.0-0.0-0.36,3,3,0,1
zibzab,1829.86,10,9,1,adj_6_6,schema_learning,img/targets/BOSS/downsized/bun.jpg,10,9,playground,37,131683,0.0-0.0-0.37,3,3,0,1
zibzab,1538.11,7,7,1,adj_6_6,schema_learning,img/targets/BOSS/downsized/bulletbelt.jpg,7,7,playground,38,134733,0.0-0.0-0.38,3,3,0,1
zibzab,1655.085,6,3,1,adj_6_6,schema_learning,img/targets/BOSS/downsized/buffaloskull.jpg,6,3,playground,39,137901,0.0-0.0-0.39,3,3,0,1
zibzab,1794.98,9,4,1,adj_6_6,schema_learning,img/targets/BOSS/downsized/bulldozer.jpg,9,4,playground,40,141208,0.0-0.0-0.40,3,3,0,1
zibzab,1657.475,7,7,1,adj_6_6,schema_learning,img/targets/BOSS/downsized/bulletbelt.jpg,7,7,playground,41,144378,0.0-0.0-0.41,3,3,0,1
zibzab,1847.535,9,4,1,adj_6_6,schema_learning,img/targets/BOSS/downsized/bulldozer.jpg,9,4,playground,42,147738,0.0-0.0-0.42,3,3,0,1
zibzab,1827,3,6,1,adj_6_6,schema_learning,img/targets/BOSS/downsized/bullet.jpg,3,6,playground,43,151078,0.0-0.0-0.43,3,3,0,1
zibzab,1787.355,5,10,1,adj_6_6,schema_learning,img/targets/BOSS/downsized/butterfly.jpg,5,10,playground,44,154374,0.0-0.0-0.44,3,3,0,1
zibzab,1305.54,7,7,1,adj_6_6,schema_learning,img/targets/BOSS/downsized/bulletbelt.jpg,7,7,playground,45,157192,0.0-0.0-0.45,3,3,0,1
zibzab,2134.555,3,6,1,adj_6_6,schema_learning,img/targets/BOSS/downsized/bullet.jpg,3,6,playground,46,160839,0.0-0.0-0.46,3,3,0,1
zibzab,1733.915,7,7,1,adj_6_6,schema_learning,img/targets/BOSS/downsized/bulletbelt.jpg,7,7,playground,47,164087,0.0-0.0-0.47,3,3,0,1
zibzab,1996.735,6,3,1,adj_6_6,schema_learning,img/targets/BOSS/downsized/buffaloskull.jpg,6,3,playground,48,167594,0.0-0.0-0.48,3,3,0,1
zibzab,1555.76,10,9,1,adj_6_6,schema_learning,img/targets/BOSS/downsized/bun.jpg,10,9,playground,49,170659,0.0-0.0-0.49,3,3,0,1
zibzab,2219.12,6,3,1,adj_6_6,schema_learning,img/targets/BOSS/downsized/buffaloskull.jpg,6,3,playground,50,174395,0.0-0.0-0.50,3,3,0,1
zibzab,1513.03,9,9,0,adj_6_6,schema_learning,img/targets/BOSS/downsized/bun.jpg,10,9,playground,51,177415,0.0-0.0-0.51,3,3,1,1
zibzab,1500.06,3,6,1,adj_6_6,schema_learning,img/targets/BOSS/downsized/bullet.jpg,3,6,playground,52,180429,0.0-0.0-0.52,3,3,0,1
zibzab,1888.68,6,3,1,adj_6_6,schema_learning,img/targets/BOSS/downsized/buffaloskull.jpg,6,3,playground,53,183829,0.0-0.0-0.53,3,3,0,1
zibzab,1643.6,10,9,1,adj_6_6,schema_learning,img/targets/BOSS/downsized/bun.jpg,10,9,playground,54,186985,0.0-0.0-0.54,3,3,0,1
zibzab,1795.375,5,10,1,adj_6_6,schema_learning,img/targets/BOSS/downsized/butterfly.jpg,5,10,playground,55,190302,0.0-0.0-0.55,3,3,0,1
zibzab,1992.6,9,4,1,adj_6_6,schema_learning,img/targets/BOSS/downsized/bulldozer.jpg,9,4,playground,56,193802,0.0-0.0-0.56,3,3,0,1
zibzab,1924.965,5,10,1,adj_6_6,schema_learning,img/targets/BOSS/downsized/butterfly.jpg,5,10,playground,57,197238,0.0-0.0-0.57,3,3,0,1
zibzab,1885.915,10,9,1,adj_6_6,schema_learning,img/targets/BOSS/downsized/bun.jpg,10,9,playground,58,200636,0.0-0.0-0.58,3,3,0,1
zibzab,2047.23,3,6,1,adj_6_6,schema_learning,img/targets/BOSS/downsized/bullet.jpg,3,6,playground,59,204196,0.0-0.0-0.59,3,3,0,1
zibzab,NA,NA,NA,NA,adj_6_6,new_pa_learning,img/targets/BOSS/downsized/campfire.jpg,4,5,playground,0,4031,0.0-0.0-0.0,4,1,NA,0
zibzab,2633.035,8,10,0,adj_6_6,new_pa_learning,img/targets/BOSS/downsized/callbell.jpg,10,4,playground,1,8182,0.0-0.0-0.1,4,1,-4,0
zibzab,1748.865,4,4,0,adj_6_6,new_pa_learning,img/targets/BOSS/downsized/campfire.jpg,4,5,playground,2,11452,0.0-0.0-0.2,4,1,1,1
zibzab,2296.165,10,4,1,adj_6_6,new_pa_learning,img/targets/BOSS/downsized/callbell.jpg,10,4,playground,3,15273,0.0-0.0-0.3,4,1,0,1
zibzab,1673.31,7,10,0,adj_6_6,new_pa_learning,img/targets/BOSS/downsized/candelabra.jpg,11,7,playground,4,18467,0.0-0.0-0.4,4,1,1,1
zibzab,2736.02,5,10,0,adj_6_6,new_pa_learning,img/targets/BOSS/downsized/caribou02.jpg,3,9,playground,5,22737,0.0-0.0-0.5,4,1,-3,0
zibzab,2045.345,4,5,1,adj_6_6,new_pa_learning,img/targets/BOSS/downsized/campfire.jpg,4,5,playground,6,26303,0.0-0.0-0.6,4,1,0,1
zibzab,2352.525,9,9,0,adj_6_6,new_pa_learning,img/targets/BOSS/downsized/cactus.jpg,8,2,playground,7,30166,0.0-0.0-0.7,4,1,-8,0
zibzab,1873.04,3,8,0,adj_6_6,new_pa_learning,img/targets/BOSS/downsized/candelabra.jpg,11,7,playground,8,33551,0.0-0.0-0.8,4,1,7,0
zibzab,1609.65,9,9,0,adj_6_6,new_pa_learning,img/targets/BOSS/downsized/car.jpg,8,8,playground,9,36670,0.0-0.0-0.9,4,1,-2,0
zibzab,1618.73,11,7,1,adj_6_6,new_pa_learning,img/targets/BOSS/downsized/candelabra.jpg,11,7,playground,10,39804,0.0-0.0-0.10,4,1,0,1
zibzab,2005.305,10,4,1,adj_6_6,new_pa_learning,img/targets/BOSS/downsized/callbell.jpg,10,4,playground,11,43321,0.0-0.0-0.11,4,1,0,1
zibzab,1933.355,8,2,1,adj_6_6,new_pa_learning,img/targets/BOSS/downsized/cactus.jpg,8,2,playground,12,46768,0.0-0.0-0.12,4,1,0,1
zibzab,1557.775,10,4,1,adj_6_6,new_pa_learning,img/targets/BOSS/downsized/callbell.jpg,10,4,playground,13,49838,0.0-0.0-0.13,4,1,0,1
zibzab,2051.795,8,9,0,adj_6_6,new_pa_learning,img/targets/BOSS/downsized/car.jpg,8,8,playground,14,53403,0.0-0.0-0.14,4,1,-1,1
zibzab,1652.46,10,7,0,adj_6_6,new_pa_learning,img/targets/BOSS/downsized/candelabra.jpg,11,7,playground,15,56571,0.0-0.0-0.15,4,1,1,1
zibzab,1526.57,8,8,1,adj_6_6,new_pa_learning,img/targets/BOSS/downsized/car.jpg,8,8,playground,16,59606,0.0-0.0-0.16,4,1,0,1
zibzab,2163.69,3,5,0,adj_6_6,new_pa_learning,img/targets/BOSS/downsized/campfire.jpg,4,5,playground,17,63281,0.0-0.0-0.17,4,1,1,1
zibzab,1617.15,11,7,1,adj_6_6,new_pa_learning,img/targets/BOSS/downsized/candelabra.jpg,11,7,playground,18,66405,0.0-0.0-0.18,4,1,0,1
zibzab,1853.785,4,5,1,adj_6_6,new_pa_learning,img/targets/BOSS/downsized/campfire.jpg,4,5,playground,19,69769,0.0-0.0-0.19,4,1,0,1
zibzab,1978.83,9,4,0,adj_6_6,new_pa_learning,img/targets/BOSS/downsized/callbell.jpg,10,4,playground,20,73261,0.0-0.0-0.20,4,1,1,1
zibzab,1975.48,8,8,1,adj_6_6,new_pa_learning,img/targets/BOSS/downsized/car.jpg,8,8,playground,21,76749,0.0-0.0-0.21,4,1,0,1
zibzab,1879.725,4,5,1,adj_6_6,new_pa_learning,img/targets/BOSS/downsized/campfire.jpg,4,5,playground,22,80144,0.0-0.0-0.22,4,1,0,1
zibzab,1853.22,8,8,1,adj_6_6,new_pa_learning,img/targets/BOSS/downsized/car.jpg,8,8,playground,23,83513,0.0-0.0-0.23,4,1,0,1
zibzab,2689.69,5,11,0,adj_6_6,new_pa_learning,img/targets/BOSS/downsized/caribou02.jpg,3,9,playground,24,87714,0.0-0.0-0.24,4,1,-4,0
zibzab,1983.415,10,4,1,adj_6_6,new_pa_learning,img/targets/BOSS/downsized/callbell.jpg,10,4,playground,25,91209,0.0-0.0-0.25,4,1,0,1
zibzab,1805.7,11,7,1,adj_6_6,new_pa_learning,img/targets/BOSS/downsized/candelabra.jpg,11,7,playground,26,94527,0.0-0.0-0.26,4,1,0,1
zibzab,1473.64,8,2,1,adj_6_6,new_pa_learning,img/targets/BOSS/downsized/cactus.jpg,8,2,playground,27,97511,0.0-0.0-0.27,4,1,0,1
zibzab,1465.53,10,4,1,adj_6_6,new_pa_learning,img/targets/BOSS/downsized/callbell.jpg,10,4,playground,28,100489,0.0-0.0-0.28,4,1,0,1
zibzab,1914.485,4,5,1,adj_6_6,new_pa_learning,img/targets/BOSS/downsized/campfire.jpg,4,5,playground,29,103916,0.0-0.0-0.29,4,1,0,1
zibzab,1519.45,8,1,0,adj_6_6,new_pa_learning,img/targets/BOSS/downsized/cactus.jpg,8,2,playground,30,106947,0.0-0.0-0.30,4,1,1,1
zibzab,1761.735,3,9,1,adj_6_6,new_pa_learning,img/targets/BOSS/downsized/caribou02.jpg,3,9,playground,31,110219,0.0-0.0-0.31,4,1,0,1
zibzab,1757.145,9,2,0,adj_6_6,new_pa_learning,img/targets/BOSS/downsized/cactus.jpg,8,2,playground,32,113485,0.0-0.0-0.32,4,1,-1,1
zibzab,2000.52,11,7,1,adj_6_6,new_pa_learning,img/targets/BOSS/downsized/candelabra.jpg,11,7,playground,33,116997,0.0-0.0-0.33,4,1,0,1
zibzab,2446.92,3,9,1,adj_6_6,new_pa_learning,img/targets/BOSS/downsized/caribou02.jpg,3,9,playground,34,120956,0.0-0.0-0.34,4,1,0,1
zibzab,1722.995,10,4,1,adj_6_6,new_pa_learning,img/targets/BOSS/downsized/callbell.jpg,10,4,playground,35,124192,0.0-0.0-0.35,4,1,0,1
zibzab,2023.81,3,9,1,adj_6_6,new_pa_learning,img/targets/BOSS/downsized/caribou02.jpg,3,9,playground,36,127726,0.0-0.0-0.36,4,1,0,1
zibzab,1936.01,7,8,0,adj_6_6,new_pa_learning,img/targets/BOSS/downsized/car.jpg,8,8,playground,37,131175,0.0-0.0-0.37,4,1,1,1
zibzab,1599.73,11,6,0,adj_6_6,new_pa_learning,img/targets/BOSS/downsized/candelabra.jpg,11,7,playground,38,134287,0.0-0.0-0.38,4,1,1,1
zibzab,2089.53,3,9,1,adj_6_6,new_pa_learning,img/targets/BOSS/downsized/caribou02.jpg,3,9,playground,39,137890,0.0-0.0-0.39,4,1,0,1
zibzab,1517.955,11,7,1,adj_6_6,new_pa_learning,img/targets/BOSS/downsized/candelabra.jpg,11,7,playground,40,140914,0.0-0.0-0.40,4,1,0,1
zibzab,1020.545,9,8,0,adj_6_6,new_pa_learning,img/targets/BOSS/downsized/car.jpg,8,8,playground,41,143448,0.0-0.0-0.41,4,1,-1,1
zibzab,1629.845,3,4,0,adj_6_6,new_pa_learning,img/targets/BOSS/downsized/campfire.jpg,4,5,playground,42,146590,0.0-0.0-0.42,4,1,2,0
zibzab,1707.33,8,8,1,adj_6_6,new_pa_learning,img/targets/BOSS/downsized/car.jpg,8,8,playground,43,149810,0.0-0.0-0.43,4,1,0,1
zibzab,1399.18,10,4,1,adj_6_6,new_pa_learning,img/targets/BOSS/downsized/callbell.jpg,10,4,playground,44,152720,0.0-0.0-0.44,4,1,0,1
zibzab,1822.16,3,9,1,adj_6_6,new_pa_learning,img/targets/BOSS/downsized/caribou02.jpg,3,9,playground,45,156053,0.0-0.0-0.45,4,1,0,1
zibzab,1926.22,10,4,1,adj_6_6,new_pa_learning,img/targets/BOSS/downsized/callbell.jpg,10,4,playground,46,159493,0.0-0.0-0.46,4,1,0,1
zibzab,1732.095,3,6,0,adj_6_6,new_pa_learning,img/targets/BOSS/downsized/campfire.jpg,4,5,playground,47,162738,0.0-0.0-0.47,4,1,0,1
zibzab,1899.44,8,2,1,adj_6_6,new_pa_learning,img/targets/BOSS/downsized/cactus.jpg,8,2,playground,48,166152,0.0-0.0-0.48,4,1,0,1
zibzab,1675.675,8,8,1,adj_6_6,new_pa_learning,img/targets/BOSS/downsized/car.jpg,8,8,playground,49,169342,0.0-0.0-0.49,4,1,0,1
zibzab,1654.615,8,2,1,adj_6_6,new_pa_learning,img/targets/BOSS/downsized/cactus.jpg,8,2,playground,50,172505,0.0-0.0-0.50,4,1,0,1
zibzab,1600.205,4,6,0,adj_6_6,new_pa_learning,img/targets/BOSS/downsized/campfire.jpg,4,5,playground,51,175628,0.0-0.0-0.51,4,1,-1,1
zibzab,1451.175,3,9,1,adj_6_6,new_pa_learning,img/targets/BOSS/downsized/caribou02.jpg,3,9,playground,52,178589,0.0-0.0-0.52,4,1,0,1
zibzab,1401.575,8,2,1,adj_6_6,new_pa_learning,img/targets/BOSS/downsized/cactus.jpg,8,2,playground,53,181502,0.0-0.0-0.53,4,1,0,1
zibzab,1602.935,3,9,1,adj_6_6,new_pa_learning,img/targets/BOSS/downsized/caribou02.jpg,3,9,playground,54,184613,0.0-0.0-0.54,4,1,0,1
zibzab,1488.915,8,2,1,adj_6_6,new_pa_learning,img/targets/BOSS/downsized/cactus.jpg,8,2,playground,55,187619,0.0-0.0-0.55,4,1,0,1
zibzab,1926.535,3,9,1,adj_6_6,new_pa_learning,img/targets/BOSS/downsized/caribou02.jpg,3,9,playground,56,191057,0.0-0.0-0.56,4,1,0,1
zibzab,1604.235,8,2,1,adj_6_6,new_pa_learning,img/targets/BOSS/downsized/cactus.jpg,8,2,playground,57,194172,0.0-0.0-0.57,4,1,0,1
zibzab,1630.665,11,7,1,adj_6_6,new_pa_learning,img/targets/BOSS/downsized/candelabra.jpg,11,7,playground,58,197317,0.0-0.0-0.58,4,1,0,1
zibzab,1796.22,8,8,1,adj_6_6,new_pa_learning,img/targets/BOSS/downsized/car.jpg,8,8,playground,59,200626,0.0-0.0-0.59,4,1,0,1
notmyname,NA,NA,NA,NA,adj_8_6,schema_learning,img/targets/BOSS/downsized/bassethound.jpg,4,10,playground,0,4009,0.0-0.0-0.0,1,1,NA,0
notmyname,NA,NA,NA,NA,adj_8_6,schema_learning,img/targets/BOSS/downsized/barnowl.jpg,6,6,playground,1,8517,0.0-0.0-0.1,1,1,NA,0
notmyname,1069,4,6,0,adj_8_6,schema_learning,img/targets/BOSS/downsized/artichoke01b.jpg,4,2,playground,2,11106,0.0-0.0-0.2,1,1,-4,0
notmyname,1583,4,7,0,adj_8_6,schema_learning,img/targets/BOSS/downsized/basketball01.jpg,5,8,playground,3,14205,0.0-0.0-0.3,1,1,2,0
notmyname,1119,9,4,0,adj_8_6,schema_learning,img/targets/BOSS/downsized/bassethound.jpg,4,10,playground,4,16836,0.0-0.0-0.4,1,1,1,1
notmyname,1340,5,7,0,adj_8_6,schema_learning,img/targets/BOSS/downsized/basketball01.jpg,5,8,playground,5,19697,0.0-0.0-0.5,1,1,1,1
notmyname,1208,4,5,0,adj_8_6,schema_learning,img/targets/BOSS/downsized/barnowl.jpg,6,6,playground,6,22421,0.0-0.0-0.6,1,1,3,0
notmyname,1503,4,10,1,adj_8_6,schema_learning,img/targets/BOSS/downsized/bassethound.jpg,4,10,playground,7,25435,0.0-0.0-0.7,1,1,0,1
notmyname,1161,5,2,0,adj_8_6,schema_learning,img/targets/BOSS/downsized/artichoke01b.jpg,4,2,playground,8,28118,0.0-0.0-0.8,1,1,-1,1
notmyname,1143,11,4,0,adj_8_6,schema_learning,img/targets/BOSS/downsized/badmintonracket.jpg,9,3,playground,9,30783,0.0-0.0-0.9,1,1,-3,0
notmyname,1080,10,9,0,adj_8_6,schema_learning,img/targets/BOSS/downsized/battleaxe.jpg,9,10,playground,10,33379,0.0-0.0-0.10,1,1,0,1
notmyname,1480,9,4,0,adj_8_6,schema_learning,img/targets/BOSS/downsized/badmintonracket.jpg,9,3,playground,11,36377,0.0-0.0-0.11,1,1,-1,1
notmyname,918,7,6,0,adj_8_6,schema_learning,img/targets/BOSS/downsized/barrel01.jpg,10,6,playground,12,38812,0.0-0.0-0.12,1,1,3,0
notmyname,746,7,7,0,adj_8_6,schema_learning,img/targets/BOSS/downsized/ballofstring.jpg,2,5,playground,13,41074,0.0-0.0-0.13,1,1,-7,0
notmyname,2138,9,9,0,adj_8_6,schema_learning,img/targets/BOSS/downsized/battleaxe.jpg,9,10,playground,14,44724,0.0-0.0-0.14,1,1,1,1
notmyname,1105,7,8,0,adj_8_6,schema_learning,img/targets/BOSS/downsized/ballofstring.jpg,2,5,playground,15,47352,0.0-0.0-0.15,1,1,-8,0
notmyname,929,9,4,0,adj_8_6,schema_learning,img/targets/BOSS/downsized/barrel01.jpg,10,6,playground,16,49788,0.0-0.0-0.16,1,1,3,0
notmyname,1434,6,4,0,adj_8_6,schema_learning,img/targets/BOSS/downsized/barnowl.jpg,6,6,playground,17,52731,0.0-0.0-0.17,1,1,2,0
notmyname,1640,8,9,0,adj_8_6,schema_learning,img/targets/BOSS/downsized/battleaxe.jpg,9,10,playground,18,55879,0.0-0.0-0.18,1,1,2,0
notmyname,974,8,5,0,adj_8_6,schema_learning,img/targets/BOSS/downsized/barnowl.jpg,6,6,playground,19,58371,0.0-0.0-0.19,1,1,-1,1
notmyname,1014,9,4,0,adj_8_6,schema_learning,img/targets/BOSS/downsized/badmintonracket.jpg,9,3,playground,20,60909,0.0-0.0-0.20,1,1,-1,1
notmyname,1127,4,7,0,adj_8_6,schema_learning,img/targets/BOSS/downsized/barnowl.jpg,6,6,playground,21,63546,0.0-0.0-0.21,1,1,1,1
notmyname,997,6,6,0,adj_8_6,schema_learning,img/targets/BOSS/downsized/basketball01.jpg,5,8,playground,22,66051,0.0-0.0-0.22,1,1,1,1
notmyname,1358,5,10,0,adj_8_6,schema_learning,img/targets/BOSS/downsized/bassethound.jpg,4,10,playground,23,68921,0.0-0.0-0.23,1,1,-1,1
notmyname,1045,8,10,0,adj_8_6,schema_learning,img/targets/BOSS/downsized/battleaxe.jpg,9,10,playground,24,71488,0.0-0.0-0.24,1,1,1,1
notmyname,980,9,7,0,adj_8_6,schema_learning,img/targets/BOSS/downsized/barrel01.jpg,10,6,playground,25,73973,0.0-0.0-0.25,1,1,0,1
notmyname,905,8,4,0,adj_8_6,schema_learning,img/targets/BOSS/downsized/badmintonracket.jpg,9,3,playground,26,76398,0.0-0.0-0.26,1,1,0,1
notmyname,1082,4,8,0,adj_8_6,schema_learning,img/targets/BOSS/downsized/bassethound.jpg,4,10,playground,27,78992,0.0-0.0-0.27,1,1,2,0
notmyname,755,7,7,0,adj_8_6,schema_learning,img/targets/BOSS/downsized/ballofstring.jpg,2,5,playground,28,81265,0.0-0.0-0.28,1,1,-7,0
notmyname,1811,4,4,0,adj_8_6,schema_learning,img/targets/BOSS/downsized/barnowl.jpg,6,6,playground,29,84584,0.0-0.0-0.29,1,1,4,0
notmyname,1120,3,5,0,adj_8_6,schema_learning,img/targets/BOSS/downsized/ballofstring.jpg,2,5,playground,30,87224,0.0-0.0-0.30,1,1,-1,1
notmyname,1372,4,10,1,adj_8_6,schema_learning,img/targets/BOSS/downsized/bassethound.jpg,4,10,playground,31,90115,0.0-0.0-0.31,1,1,0,1
notmyname,926,3,6,0,adj_8_6,schema_learning,img/targets/BOSS/downsized/ballofstring.jpg,2,5,playground,32,92565,0.0-0.0-0.32,1,1,-2,0
notmyname,1171,9,4,0,adj_8_6,schema_learning,img/targets/BOSS/downsized/barnowl.jpg,6,6,playground,33,95245,0.0-0.0-0.33,1,1,-1,1
notmyname,1182,8,9,0,adj_8_6,schema_learning,img/targets/BOSS/downsized/battleaxe.jpg,9,10,playground,34,97938,0.0-0.0-0.34,1,1,2,0
notmyname,1336,3,6,0,adj_8_6,schema_learning,img/targets/BOSS/downsized/ballofstring.jpg,2,5,playground,35,100787,0.0-0.0-0.35,1,1,-2,0
notmyname,1466,9,9,0,adj_8_6,schema_learning,img/targets/BOSS/downsized/battleaxe.jpg,9,10,playground,36,103769,0.0-0.0-0.36,1,1,1,1
notmyname,1273,10,6,1,adj_8_6,schema_learning,img/targets/BOSS/downsized/barrel01.jpg,10,6,playground,37,106551,0.0-0.0-0.37,1,1,0,1
notmyname,1283,9,4,0,adj_8_6,schema_learning,img/targets/BOSS/downsized/badmintonracket.jpg,9,3,playground,38,109348,0.0-0.0-0.38,1,1,-1,1
notmyname,1049,5,7,0,adj_8_6,schema_learning,img/targets/BOSS/downsized/basketball01.jpg,5,8,playground,39,111917,0.0-0.0-0.39,1,1,1,1
notmyname,1131,9,7,0,adj_8_6,schema_learning,img/targets/BOSS/downsized/barrel01.jpg,10,6,playground,40,114565,0.0-0.0-0.40,1,1,0,1
notmyname,1337,9,10,1,adj_8_6,schema_learning,img/targets/BOSS/downsized/battleaxe.jpg,9,10,playground,41,117408,0.0-0.0-0.41,1,1,0,1
notmyname,2050,6,9,0,adj_8_6,schema_learning,img/targets/BOSS/downsized/barrel01.jpg,10,6,playground,42,120977,0.0-0.0-0.42,1,1,1,1
notmyname,1519,1,6,0,adj_8_6,schema_learning,img/targets/BOSS/downsized/ballofstring.jpg,2,5,playground,43,124013,0.0-0.0-0.43,1,1,0,1
notmyname,1151,10,3,0,adj_8_6,schema_learning,img/targets/BOSS/downsized/badmintonracket.jpg,9,3,playground,44,126676,0.0-0.0-0.44,1,1,-1,1
notmyname,1851,5,5,0,adj_8_6,schema_learning,img/targets/BOSS/downsized/barnowl.jpg,6,6,playground,45,130050,0.0-0.0-0.45,1,1,2,0
notmyname,1649,4,2,1,adj_8_6,schema_learning,img/targets/BOSS/downsized/artichoke01b.jpg,4,2,playground,46,133214,0.0-0.0-0.46,1,1,0,1
notmyname,1969,7,10,0,adj_8_6,schema_learning,img/targets/BOSS/downsized/basketball01.jpg,5,8,playground,47,136697,0.0-0.0-0.47,1,1,-4,0
notmyname,1581,8,10,0,adj_8_6,schema_learning,img/targets/BOSS/downsized/battleaxe.jpg,9,10,playground,48,139798,0.0-0.0-0.48,1,1,1,1
notmyname,1329,10,4,0,adj_8_6,schema_learning,img/targets/BOSS/downsized/badmintonracket.jpg,9,3,playground,49,142637,0.0-0.0-0.49,1,1,-2,0
notmyname,1293,4,2,1,adj_8_6,schema_learning,img/targets/BOSS/downsized/artichoke01b.jpg,4,2,playground,50,145435,0.0-0.0-0.50,1,1,0,1
notmyname,1357,5,6,0,adj_8_6,schema_learning,img/targets/BOSS/downsized/barnowl.jpg,6,6,playground,51,148304,0.0-0.0-0.51,1,1,1,1
notmyname,1744,4,2,1,adj_8_6,schema_learning,img/targets/BOSS/downsized/artichoke01b.jpg,4,2,playground,52,151570,0.0-0.0-0.52,1,1,0,1
notmyname,2560,6,9,0,adj_8_6,schema_learning,img/targets/BOSS/downsized/basketball01.jpg,5,8,playground,53,155646,0.0-0.0-0.53,1,1,-2,0
notmyname,1726,10,2,0,adj_8_6,schema_learning,img/targets/BOSS/downsized/badmintonracket.jpg,9,3,playground,54,158888,0.0-0.0-0.54,1,1,0,1
notmyname,1448,2,11,0,adj_8_6,schema_learning,img/targets/BOSS/downsized/bassethound.jpg,4,10,playground,55,161847,0.0-0.0-0.55,1,1,1,1
notmyname,1553,9,9,0,adj_8_6,schema_learning,img/targets/BOSS/downsized/basketball01.jpg,5,8,playground,56,164925,0.0-0.0-0.56,1,1,-5,0
notmyname,1393,9,9,0,adj_8_6,schema_learning,img/targets/BOSS/downsized/battleaxe.jpg,9,10,playground,57,167832,0.0-0.0-0.57,1,1,1,1
notmyname,1195,4,2,1,adj_8_6,schema_learning,img/targets/BOSS/downsized/artichoke01b.jpg,4,2,playground,58,170544,0.0-0.0-0.58,1,1,0,1
notmyname,1464,4,9,0,adj_8_6,schema_learning,img/targets/BOSS/downsized/bassethound.jpg,4,10,playground,59,173527,0.0-0.0-0.59,1,1,1,1
notmyname,1397,11,6,0,adj_8_6,schema_learning,img/targets/BOSS/downsized/barrel01.jpg,10,6,playground,60,176442,0.0-0.0-0.60,1,1,-1,1
notmyname,1613,3,2,0,adj_8_6,schema_learning,img/targets/BOSS/downsized/artichoke01b.jpg,4,2,playground,61,179572,0.0-0.0-0.61,1,1,1,1
notmyname,1094,10,2,0,adj_8_6,schema_learning,img/targets/BOSS/downsized/badmintonracket.jpg,9,3,playground,62,182173,0.0-0.0-0.62,1,1,0,1
notmyname,1292,2,5,1,adj_8_6,schema_learning,img/targets/BOSS/downsized/ballofstring.jpg,2,5,playground,63,184989,0.0-0.0-0.63,1,1,0,1
notmyname,1197,5,11,0,adj_8_6,schema_learning,img/targets/BOSS/downsized/bassethound.jpg,4,10,playground,64,187702,0.0-0.0-0.64,1,1,-2,0
notmyname,1919,4,1,0,adj_8_6,schema_learning,img/targets/BOSS/downsized/artichoke01b.jpg,4,2,playground,65,191137,0.0-0.0-0.65,1,1,1,1
notmyname,2589,6,9,0,adj_8_6,schema_learning,img/targets/BOSS/downsized/basketball01.jpg,5,8,playground,66,195230,0.0-0.0-0.66,1,1,-2,0
notmyname,1345,9,10,1,adj_8_6,schema_learning,img/targets/BOSS/downsized/battleaxe.jpg,9,10,playground,67,198099,0.0-0.0-0.67,1,1,0,1
notmyname,1481,5,10,0,adj_8_6,schema_learning,img/targets/BOSS/downsized/bassethound.jpg,4,10,playground,68,201085,0.0-0.0-0.68,1,1,-1,1
notmyname,1667,10,5,0,adj_8_6,schema_learning,img/targets/BOSS/downsized/basketball01.jpg,5,8,playground,69,204269,0.0-0.0-0.69,1,1,-2,0
notmyname,1275,4,3,0,adj_8_6,schema_learning,img/targets/BOSS/downsized/artichoke01b.jpg,4,2,playground,70,207058,0.0-0.0-0.70,1,1,-1,1
notmyname,1944,9,3,1,adj_8_6,schema_learning,img/targets/BOSS/downsized/badmintonracket.jpg,9,3,playground,71,210517,0.0-0.0-0.71,1,1,0,1
notmyname,1920,10,6,1,adj_8_6,schema_learning,img/targets/BOSS/downsized/barrel01.jpg,10,6,playground,72,213941,0.0-0.0-0.72,1,1,0,1
notmyname,1757,5,8,1,adj_8_6,schema_learning,img/targets/BOSS/downsized/basketball01.jpg,5,8,playground,73,217200,0.0-0.0-0.73,1,1,0,1
notmyname,1329,2,5,1,adj_8_6,schema_learning,img/targets/BOSS/downsized/ballofstring.jpg,2,5,playground,74,220042,0.0-0.0-0.74,1,1,0,1
notmyname,1346,10,6,1,adj_8_6,schema_learning,img/targets/BOSS/downsized/barrel01.jpg,10,6,playground,75,222894,0.0-0.0-0.75,1,1,0,1
notmyname,2609,3,4,0,adj_8_6,schema_learning,img/targets/BOSS/downsized/barnowl.jpg,6,6,playground,76,227025,0.0-0.0-0.76,1,1,5,0
notmyname,1093,10,6,1,adj_8_6,schema_learning,img/targets/BOSS/downsized/barrel01.jpg,10,6,playground,77,229633,0.0-0.0-0.77,1,1,0,1
notmyname,1277,3,5,0,adj_8_6,schema_learning,img/targets/BOSS/downsized/ballofstring.jpg,2,5,playground,78,232427,0.0-0.0-0.78,1,1,-1,1
notmyname,1690,3,1,0,adj_8_6,schema_learning,img/targets/BOSS/downsized/artichoke01b.jpg,4,2,playground,79,235632,0.0-0.0-0.79,1,1,2,0
notmyname,1613,10,6,1,adj_8_6,schema_learning,img/targets/BOSS/downsized/barrel01.jpg,10,6,playground,0,2628,0.0-0.0-0.0,2,2,0,1
notmyname,1256,4,10,1,adj_8_6,schema_learning,img/targets/BOSS/downsized/bassethound.jpg,4,10,playground,1,5394,0.0-0.0-0.1,2,2,0,1
notmyname,1280,3,5,0,adj_8_6,schema_learning,img/targets/BOSS/downsized/ballofstring.jpg,2,5,playground,2,8186,0.0-0.0-0.2,2,2,-1,1
notmyname,1393,4,2,1,adj_8_6,schema_learning,img/targets/BOSS/downsized/artichoke01b.jpg,4,2,playground,3,11090,0.0-0.0-0.3,2,2,0,1
notmyname,1309,2,6,0,adj_8_6,schema_learning,img/targets/BOSS/downsized/ballofstring.jpg,2,5,playground,4,13920,0.0-0.0-0.4,2,2,-1,1
notmyname,1151,10,3,0,adj_8_6,schema_learning,img/targets/BOSS/downsized/badmintonracket.jpg,9,3,playground,5,16596,0.0-0.0-0.5,2,2,-1,1
notmyname,1516,5,6,0,adj_8_6,schema_learning,img/targets/BOSS/downsized/ballofstring.jpg,2,5,playground,6,19627,0.0-0.0-0.6,2,2,-4,0
notmyname,1075,3,8,0,adj_8_6,schema_learning,img/targets/BOSS/downsized/barnowl.jpg,6,6,playground,7,22215,0.0-0.0-0.7,2,2,1,1
notmyname,979,8,4,0,adj_8_6,schema_learning,img/targets/BOSS/downsized/badmintonracket.jpg,9,3,playground,8,24703,0.0-0.0-0.8,2,2,0,1
notmyname,979,5,9,0,adj_8_6,schema_learning,img/targets/BOSS/downsized/basketball01.jpg,5,8,playground,9,27194,0.0-0.0-0.9,2,2,-1,1
notmyname,1041,4,11,0,adj_8_6,schema_learning,img/targets/BOSS/downsized/bassethound.jpg,4,10,playground,10,29751,0.0-0.0-0.10,2,2,-1,1
notmyname,946,9,6,0,adj_8_6,schema_learning,img/targets/BOSS/downsized/basketball01.jpg,5,8,playground,11,32219,0.0-0.0-0.11,2,2,-2,0
notmyname,1041,4,2,1,adj_8_6,schema_learning,img/targets/BOSS/downsized/artichoke01b.jpg,4,2,playground,12,34780,0.0-0.0-0.12,2,2,0,1
notmyname,993,10,9,0,adj_8_6,schema_learning,img/targets/BOSS/downsized/battleaxe.jpg,9,10,playground,13,37289,0.0-0.0-0.13,2,2,0,1
notmyname,961,10,7,0,adj_8_6,schema_learning,img/targets/BOSS/downsized/barnowl.jpg,6,6,playground,14,39766,0.0-0.0-0.14,2,2,-5,0
notmyname,1568,8,8,0,adj_8_6,schema_learning,img/targets/BOSS/downsized/basketball01.jpg,5,8,playground,15,42843,0.0-0.0-0.15,2,2,-3,0
notmyname,1848,2,5,1,adj_8_6,schema_learning,img/targets/BOSS/downsized/ballofstring.jpg,2,5,playground,16,46203,0.0-0.0-0.16,2,2,0,1
notmyname,1228,4,10,1,adj_8_6,schema_learning,img/targets/BOSS/downsized/bassethound.jpg,4,10,playground,17,48938,0.0-0.0-0.17,2,2,0,1
notmyname,902,9,6,0,adj_8_6,schema_learning,img/targets/BOSS/downsized/barrel01.jpg,10,6,playground,18,51350,0.0-0.0-0.18,2,2,1,1
notmyname,877,6,7,0,adj_8_6,schema_learning,img/targets/BOSS/downsized/basketball01.jpg,5,8,playground,19,53740,0.0-0.0-0.19,2,2,0,1
notmyname,1565,10,3,0,adj_8_6,schema_learning,img/targets/BOSS/downsized/badmintonracket.jpg,9,3,playground,20,56819,0.0-0.0-0.20,2,2,-1,1
notmyname,966,6,8,0,adj_8_6,schema_learning,img/targets/BOSS/downsized/basketball01.jpg,5,8,playground,21,59303,0.0-0.0-0.21,2,2,-1,1
notmyname,1136,5,10,0,adj_8_6,schema_learning,img/targets/BOSS/downsized/bassethound.jpg,4,10,playground,22,61957,0.0-0.0-0.22,2,2,-1,1
notmyname,1099,7,6,0,adj_8_6,schema_learning,img/targets/BOSS/downsized/barnowl.jpg,6,6,playground,23,64571,0.0-0.0-0.23,2,2,-1,1
notmyname,1137,2,6,0,adj_8_6,schema_learning,img/targets/BOSS/downsized/ballofstring.jpg,2,5,playground,24,67226,0.0-0.0-0.24,2,2,-1,1
notmyname,1078,3,10,0,adj_8_6,schema_learning,img/targets/BOSS/downsized/basketball01.jpg,5,8,playground,25,69823,0.0-0.0-0.25,2,2,0,1
notmyname,1208,9,2,0,adj_8_6,schema_learning,img/targets/BOSS/downsized/badmintonracket.jpg,9,3,playground,26,72553,0.0-0.0-0.26,2,2,1,1
notmyname,1250,9,10,1,adj_8_6,schema_learning,img/targets/BOSS/downsized/battleaxe.jpg,9,10,playground,27,75319,0.0-0.0-0.27,2,2,0,1
notmyname,1490,4,10,1,adj_8_6,schema_learning,img/targets/BOSS/downsized/bassethound.jpg,4,10,playground,28,78332,0.0-0.0-0.28,2,2,0,1
notmyname,1719,6,6,1,adj_8_6,schema_learning,img/targets/BOSS/downsized/barnowl.jpg,6,6,playground,29,81566,0.0-0.0-0.29,2,2,0,1
notmyname,1467,4,2,1,adj_8_6,schema_learning,img/targets/BOSS/downsized/artichoke01b.jpg,4,2,playground,30,84549,0.0-0.0-0.30,2,2,0,1
notmyname,1497,10,10,0,adj_8_6,schema_learning,img/targets/BOSS/downsized/battleaxe.jpg,9,10,playground,31,87550,0.0-0.0-0.31,2,2,-1,1
notmyname,2039,6,6,1,adj_8_6,schema_learning,img/targets/BOSS/downsized/barnowl.jpg,6,6,playground,32,91107,0.0-0.0-0.32,2,2,0,1
notmyname,1404,4,2,1,adj_8_6,schema_learning,img/targets/BOSS/downsized/artichoke01b.jpg,4,2,playground,33,94019,0.0-0.0-0.33,2,2,0,1
notmyname,1211,10,6,1,adj_8_6,schema_learning,img/targets/BOSS/downsized/barrel01.jpg,10,6,playground,34,96746,0.0-0.0-0.34,2,2,0,1
notmyname,1423,4,3,0,adj_8_6,schema_learning,img/targets/BOSS/downsized/artichoke01b.jpg,4,2,playground,35,99682,0.0-0.0-0.35,2,2,-1,1
notmyname,1210,9,9,0,adj_8_6,schema_learning,img/targets/BOSS/downsized/battleaxe.jpg,9,10,playground,36,102404,0.0-0.0-0.36,2,2,1,1
notmyname,1324,4,10,1,adj_8_6,schema_learning,img/targets/BOSS/downsized/bassethound.jpg,4,10,playground,37,105245,0.0-0.0-0.37,2,2,0,1
notmyname,1511,3,6,0,adj_8_6,schema_learning,img/targets/BOSS/downsized/ballofstring.jpg,2,5,playground,38,108261,0.0-0.0-0.38,2,2,-2,0
notmyname,1373,9,10,1,adj_8_6,schema_learning,img/targets/BOSS/downsized/battleaxe.jpg,9,10,playground,39,111148,0.0-0.0-0.39,2,2,0,1
notmyname,1295,10,3,0,adj_8_6,schema_learning,img/targets/BOSS/downsized/badmintonracket.jpg,9,3,playground,40,113955,0.0-0.0-0.40,2,2,-1,1
notmyname,1418,5,10,0,adj_8_6,schema_learning,img/targets/BOSS/downsized/bassethound.jpg,4,10,playground,41,116881,0.0-0.0-0.41,2,2,-1,1
notmyname,1294,10,3,0,adj_8_6,schema_learning,img/targets/BOSS/downsized/badmintonracket.jpg,9,3,playground,42,119693,0.0-0.0-0.42,2,2,-1,1
notmyname,1204,5,7,0,adj_8_6,schema_learning,img/targets/BOSS/downsized/basketball01.jpg,5,8,playground,43,122410,0.0-0.0-0.43,2,2,1,1
notmyname,1164,3,5,0,adj_8_6,schema_learning,img/targets/BOSS/downsized/barnowl.jpg,6,6,playground,44,125084,0.0-0.0-0.44,2,2,4,0
notmyname,1309,4,2,1,adj_8_6,schema_learning,img/targets/BOSS/downsized/artichoke01b.jpg,4,2,playground,45,127911,0.0-0.0-0.45,2,2,0,1
notmyname,1358,10,10,0,adj_8_6,schema_learning,img/targets/BOSS/downsized/battleaxe.jpg,9,10,playground,46,130777,0.0-0.0-0.46,2,2,-1,1
notmyname,1195,10,6,1,adj_8_6,schema_learning,img/targets/BOSS/downsized/barrel01.jpg,10,6,playground,47,133487,0.0-0.0-0.47,2,2,0,1
notmyname,1091,4,2,1,adj_8_6,schema_learning,img/targets/BOSS/downsized/artichoke01b.jpg,4,2,playground,48,136091,0.0-0.0-0.48,2,2,0,1
notmyname,1337,3,5,0,adj_8_6,schema_learning,img/targets/BOSS/downsized/ballofstring.jpg,2,5,playground,49,138941,0.0-0.0-0.49,2,2,-1,1
notmyname,1421,5,10,0,adj_8_6,schema_learning,img/targets/BOSS/downsized/bassethound.jpg,4,10,playground,50,141881,0.0-0.0-0.50,2,2,-1,1
notmyname,1169,4,2,1,adj_8_6,schema_learning,img/targets/BOSS/downsized/artichoke01b.jpg,4,2,playground,51,144565,0.0-0.0-0.51,2,2,0,1
notmyname,1094,10,6,1,adj_8_6,schema_learning,img/targets/BOSS/downsized/barrel01.jpg,10,6,playground,52,147179,0.0-0.0-0.52,2,2,0,1
notmyname,1195,4,7,0,adj_8_6,schema_learning,img/targets/BOSS/downsized/basketball01.jpg,5,8,playground,53,149892,0.0-0.0-0.53,2,2,2,0
notmyname,1406,5,10,0,adj_8_6,schema_learning,img/targets/BOSS/downsized/bassethound.jpg,4,10,playground,54,152820,0.0-0.0-0.54,2,2,-1,1
notmyname,1221,4,5,0,adj_8_6,schema_learning,img/targets/BOSS/downsized/barnowl.jpg,6,6,playground,55,155565,0.0-0.0-0.55,2,2,3,0
notmyname,1207,2,5,1,adj_8_6,schema_learning,img/targets/BOSS/downsized/ballofstring.jpg,2,5,playground,56,158290,0.0-0.0-0.56,2,2,0,1
notmyname,1325,4,2,1,adj_8_6,schema_learning,img/targets/BOSS/downsized/artichoke01b.jpg,4,2,playground,57,161127,0.0-0.0-0.57,2,2,0,1
notmyname,1354,10,3,0,adj_8_6,schema_learning,img/targets/BOSS/downsized/badmintonracket.jpg,9,3,playground,58,164004,0.0-0.0-0.58,2,2,-1,1
notmyname,1475,10,5,0,adj_8_6,schema_learning,img/targets/BOSS/downsized/barrel01.jpg,10,6,playground,59,166994,0.0-0.0-0.59,2,2,1,1
notmyname,1924,6,6,1,adj_8_6,schema_learning,img/targets/BOSS/downsized/barnowl.jpg,6,6,playground,60,170430,0.0-0.0-0.60,2,2,0,1
notmyname,1435,9,9,0,adj_8_6,schema_learning,img/targets/BOSS/downsized/battleaxe.jpg,9,10,playground,61,173372,0.0-0.0-0.61,2,2,1,1
notmyname,1125,6,6,1,adj_8_6,schema_learning,img/targets/BOSS/downsized/barnowl.jpg,6,6,playground,62,176004,0.0-0.0-0.62,2,2,0,1
notmyname,1501,5,9,0,adj_8_6,schema_learning,img/targets/BOSS/downsized/bassethound.jpg,4,10,playground,63,179016,0.0-0.0-0.63,2,2,0,1
notmyname,1500,10,6,1,adj_8_6,schema_learning,img/targets/BOSS/downsized/barrel01.jpg,10,6,playground,64,182030,0.0-0.0-0.64,2,2,0,1
notmyname,1912,5,8,1,adj_8_6,schema_learning,img/targets/BOSS/downsized/basketball01.jpg,5,8,playground,65,185459,0.0-0.0-0.65,2,2,0,1
notmyname,1791,10,3,0,adj_8_6,schema_learning,img/targets/BOSS/downsized/badmintonracket.jpg,9,3,playground,66,188764,0.0-0.0-0.66,2,2,-1,1
notmyname,1516,4,2,1,adj_8_6,schema_learning,img/targets/BOSS/downsized/artichoke01b.jpg,4,2,playground,67,191784,0.0-0.0-0.67,2,2,0,1
notmyname,1634,10,6,1,adj_8_6,schema_learning,img/targets/BOSS/downsized/barrel01.jpg,10,6,playground,68,194931,0.0-0.0-0.68,2,2,0,1
notmyname,1271,2,5,1,adj_8_6,schema_learning,img/targets/BOSS/downsized/ballofstring.jpg,2,5,playground,69,197719,0.0-0.0-0.69,2,2,0,1
notmyname,1782,11,6,0,adj_8_6,schema_learning,img/targets/BOSS/downsized/barrel01.jpg,10,6,playground,70,201020,0.0-0.0-0.70,2,2,-1,1
notmyname,NA,NA,NA,NA,adj_8_6,schema_learning,img/targets/BOSS/downsized/barnowl.jpg,6,6,playground,71,205546,0.0-0.0-0.71,2,2,NA,0
notmyname,1493,9,9,0,adj_8_6,schema_learning,img/targets/BOSS/downsized/battleaxe.jpg,9,10,playground,72,208546,0.0-0.0-0.72,2,2,1,1
notmyname,1443,6,8,0,adj_8_6,schema_learning,img/targets/BOSS/downsized/basketball01.jpg,5,8,playground,73,211495,0.0-0.0-0.73,2,2,-1,1
notmyname,1246,11,6,0,adj_8_6,schema_learning,img/targets/BOSS/downsized/barrel01.jpg,10,6,playground,74,214255,0.0-0.0-0.74,2,2,-1,1
notmyname,1354,10,3,0,adj_8_6,schema_learning,img/targets/BOSS/downsized/badmintonracket.jpg,9,3,playground,75,217126,0.0-0.0-0.75,2,2,-1,1
notmyname,1231,2,5,1,adj_8_6,schema_learning,img/targets/BOSS/downsized/ballofstring.jpg,2,5,playground,76,219875,0.0-0.0-0.76,2,2,0,1
notmyname,1827,9,9,0,adj_8_6,schema_learning,img/targets/BOSS/downsized/battleaxe.jpg,9,10,playground,77,223214,0.0-0.0-0.77,2,2,1,1
notmyname,1645,10,3,0,adj_8_6,schema_learning,img/targets/BOSS/downsized/badmintonracket.jpg,9,3,playground,78,226363,0.0-0.0-0.78,2,2,-1,1
notmyname,1323,9,10,1,adj_8_6,schema_learning,img/targets/BOSS/downsized/battleaxe.jpg,9,10,playground,79,229190,0.0-0.0-0.79,2,2,0,1
notmyname,1604,10,6,1,adj_8_6,schema_learning,img/targets/BOSS/downsized/barrel01.jpg,10,6,playground,0,2626,0.0-0.0-0.0,3,3,0,1
notmyname,1417,4,2,1,adj_8_6,schema_learning,img/targets/BOSS/downsized/artichoke01b.jpg,4,2,playground,1,5565,0.0-0.0-0.1,3,3,0,1
notmyname,1241,3,5,0,adj_8_6,schema_learning,img/targets/BOSS/downsized/ballofstring.jpg,2,5,playground,2,8321,0.0-0.0-0.2,3,3,-1,1
notmyname,1535,4,2,1,adj_8_6,schema_learning,img/targets/BOSS/downsized/artichoke01b.jpg,4,2,playground,3,11375,0.0-0.0-0.3,3,3,0,1
notmyname,1118,4,10,1,adj_8_6,schema_learning,img/targets/BOSS/downsized/bassethound.jpg,4,10,playground,4,14010,0.0-0.0-0.4,3,3,0,1
notmyname,1304,9,10,1,adj_8_6,schema_learning,img/targets/BOSS/downsized/battleaxe.jpg,9,10,playground,5,16823,0.0-0.0-0.5,3,3,0,1
notmyname,2318,4,4,0,adj_8_6,schema_learning,img/targets/BOSS/downsized/barnowl.jpg,6,6,playground,6,20650,0.0-0.0-0.6,3,3,4,0
notmyname,999,10,6,1,adj_8_6,schema_learning,img/targets/BOSS/downsized/barrel01.jpg,10,6,playground,7,23172,0.0-0.0-0.7,3,3,0,1
notmyname,1170,5,5,0,adj_8_6,schema_learning,img/targets/BOSS/downsized/barnowl.jpg,6,6,playground,8,25859,0.0-0.0-0.8,3,3,2,0
notmyname,1417,10,2,0,adj_8_6,schema_learning,img/targets/BOSS/downsized/badmintonracket.jpg,9,3,playground,9,28791,0.0-0.0-0.9,3,3,0,1
notmyname,1281,6,8,0,adj_8_6,schema_learning,img/targets/BOSS/downsized/basketball01.jpg,5,8,playground,10,31586,0.0-0.0-0.10,3,3,-1,1
notmyname,1203,10,3,0,adj_8_6,schema_learning,img/targets/BOSS/downsized/badmintonracket.jpg,9,3,playground,11,34304,0.0-0.0-0.11,3,3,-1,1
notmyname,1370,5,3,0,adj_8_6,schema_learning,img/targets/BOSS/downsized/artichoke01b.jpg,4,2,playground,12,37191,0.0-0.0-0.12,3,3,-2,0
notmyname,1239,11,6,0,adj_8_6,schema_learning,img/targets/BOSS/downsized/barrel01.jpg,10,6,playground,13,39937,0.0-0.0-0.13,3,3,-1,1
notmyname,1119,3,2,0,adj_8_6,schema_learning,img/targets/BOSS/downsized/artichoke01b.jpg,4,2,playground,14,42574,0.0-0.0-0.14,3,3,1,1
notmyname,1312,3,5,0,adj_8_6,schema_learning,img/targets/BOSS/downsized/ballofstring.jpg,2,5,playground,15,45400,0.0-0.0-0.15,3,3,-1,1
notmyname,1260,4,9,0,adj_8_6,schema_learning,img/targets/BOSS/downsized/basketball01.jpg,5,8,playground,16,48172,0.0-0.0-0.16,3,3,0,1
notmyname,1305,4,10,1,adj_8_6,schema_learning,img/targets/BOSS/downsized/bassethound.jpg,4,10,playground,17,50994,0.0-0.0-0.17,3,3,0,1
notmyname,1410,2,5,1,adj_8_6,schema_learning,img/targets/BOSS/downsized/ballofstring.jpg,2,5,playground,18,53922,0.0-0.0-0.18,3,3,0,1
notmyname,1489,9,3,1,adj_8_6,schema_learning,img/targets/BOSS/downsized/badmintonracket.jpg,9,3,playground,19,56922,0.0-0.0-0.19,3,3,0,1
notmyname,1629,6,6,1,adj_8_6,schema_learning,img/targets/BOSS/downsized/barnowl.jpg,6,6,playground,20,60067,0.0-0.0-0.20,3,3,0,1
notmyname,1634,8,3,0,adj_8_6,schema_learning,img/targets/BOSS/downsized/badmintonracket.jpg,9,3,playground,21,63205,0.0-0.0-0.21,3,3,1,1
notmyname,1396,4,2,1,adj_8_6,schema_learning,img/targets/BOSS/downsized/artichoke01b.jpg,4,2,playground,22,66113,0.0-0.0-0.22,3,3,0,1
notmyname,1368,4,11,0,adj_8_6,schema_learning,img/targets/BOSS/downsized/bassethound.jpg,4,10,playground,23,68995,0.0-0.0-0.23,3,3,-1,1
notmyname,1280,9,3,1,adj_8_6,schema_learning,img/targets/BOSS/downsized/badmintonracket.jpg,9,3,playground,24,71790,0.0-0.0-0.24,3,3,0,1
notmyname,1476,10,5,0,adj_8_6,schema_learning,img/targets/BOSS/downsized/barrel01.jpg,10,6,playground,25,74788,0.0-0.0-0.25,3,3,1,1
notmyname,1262,4,8,0,adj_8_6,schema_learning,img/targets/BOSS/downsized/basketball01.jpg,5,8,playground,26,77569,0.0-0.0-0.26,3,3,1,1
notmyname,1280,4,2,1,adj_8_6,schema_learning,img/targets/BOSS/downsized/artichoke01b.jpg,4,2,playground,27,80361,0.0-0.0-0.27,3,3,0,1
notmyname,1614,10,6,1,adj_8_6,schema_learning,img/targets/BOSS/downsized/barrel01.jpg,10,6,playground,28,83493,0.0-0.0-0.28,3,3,0,1
notmyname,1405,4,11,0,adj_8_6,schema_learning,img/targets/BOSS/downsized/bassethound.jpg,4,10,playground,29,86416,0.0-0.0-0.29,3,3,-1,1
notmyname,1512,5,8,1,adj_8_6,schema_learning,img/targets/BOSS/downsized/basketball01.jpg,5,8,playground,30,89444,0.0-0.0-0.30,3,3,0,1
notmyname,1211,2,5,1,adj_8_6,schema_learning,img/targets/BOSS/downsized/ballofstring.jpg,2,5,playground,31,92166,0.0-0.0-0.31,3,3,0,1
notmyname,1327,4,11,0,adj_8_6,schema_learning,img/targets/BOSS/downsized/bassethound.jpg,4,10,playground,32,95010,0.0-0.0-0.32,3,3,-1,1
notmyname,1635,10,6,1,adj_8_6,schema_learning,img/targets/BOSS/downsized/barrel01.jpg,10,6,playground,33,98169,0.0-0.0-0.33,3,3,0,1
notmyname,1418,9,11,0,adj_8_6,schema_learning,img/targets/BOSS/downsized/battleaxe.jpg,9,10,playground,34,101106,0.0-0.0-0.34,3,3,-1,1
notmyname,1449,8,3,0,adj_8_6,schema_learning,img/targets/BOSS/downsized/badmintonracket.jpg,9,3,playground,35,104078,0.0-0.0-0.35,3,3,1,1
notmyname,1271,2,5,1,adj_8_6,schema_learning,img/targets/BOSS/downsized/ballofstring.jpg,2,5,playground,36,106861,0.0-0.0-0.36,3,3,0,1
notmyname,1436,4,10,1,adj_8_6,schema_learning,img/targets/BOSS/downsized/bassethound.jpg,4,10,playground,37,109811,0.0-0.0-0.37,3,3,0,1
notmyname,1368,4,2,1,adj_8_6,schema_learning,img/targets/BOSS/downsized/artichoke01b.jpg,4,2,playground,38,112691,0.0-0.0-0.38,3,3,0,1
notmyname,1751,5,6,0,adj_8_6,schema_learning,img/targets/BOSS/downsized/barnowl.jpg,6,6,playground,39,115962,0.0-0.0-0.39,3,3,1,1
notmyname,1230,2,6,0,adj_8_6,schema_learning,img/targets/BOSS/downsized/ballofstring.jpg,2,5,playground,40,118712,0.0-0.0-0.40,3,3,-1,1
notmyname,1519,9,3,1,adj_8_6,schema_learning,img/targets/BOSS/downsized/badmintonracket.jpg,9,3,playground,41,121743,0.0-0.0-0.41,3,3,0,1
notmyname,1883,10,6,1,adj_8_6,schema_learning,img/targets/BOSS/downsized/barrel01.jpg,10,6,playground,42,125135,0.0-0.0-0.42,3,3,0,1
notmyname,1318,9,10,1,adj_8_6,schema_learning,img/targets/BOSS/downsized/battleaxe.jpg,9,10,playground,43,127966,0.0-0.0-0.43,3,3,0,1
notmyname,1563,6,6,1,adj_8_6,schema_learning,img/targets/BOSS/downsized/barnowl.jpg,6,6,playground,44,131046,0.0-0.0-0.44,3,3,0,1
notmyname,1126,9,3,1,adj_8_6,schema_learning,img/targets/BOSS/downsized/badmintonracket.jpg,9,3,playground,45,133688,0.0-0.0-0.45,3,3,0,1
notmyname,1501,4,2,1,adj_8_6,schema_learning,img/targets/BOSS/downsized/artichoke01b.jpg,4,2,playground,46,136703,0.0-0.0-0.46,3,3,0,1
notmyname,1930,9,11,0,adj_8_6,schema_learning,img/targets/BOSS/downsized/battleaxe.jpg,9,10,playground,47,140154,0.0-0.0-0.47,3,3,-1,1
notmyname,1336,2,5,1,adj_8_6,schema_learning,img/targets/BOSS/downsized/ballofstring.jpg,2,5,playground,48,143009,0.0-0.0-0.48,3,3,0,1
notmyname,1183,5,8,1,adj_8_6,schema_learning,img/targets/BOSS/downsized/basketball01.jpg,5,8,playground,49,145713,0.0-0.0-0.49,3,3,0,1
notmyname,1178,9,3,1,adj_8_6,schema_learning,img/targets/BOSS/downsized/badmintonracket.jpg,9,3,playground,50,148409,0.0-0.0-0.50,3,3,0,1
notmyname,1137,5,5,0,adj_8_6,schema_learning,img/targets/BOSS/downsized/barnowl.jpg,6,6,playground,51,151056,0.0-0.0-0.51,3,3,2,0
notmyname,1126,4,2,1,adj_8_6,schema_learning,img/targets/BOSS/downsized/artichoke01b.jpg,4,2,playground,52,153699,0.0-0.0-0.52,3,3,0,1
notmyname,1255,2,5,1,adj_8_6,schema_learning,img/targets/BOSS/downsized/ballofstring.jpg,2,5,playground,53,156473,0.0-0.0-0.53,3,3,0,1
notmyname,1605,6,6,1,adj_8_6,schema_learning,img/targets/BOSS/downsized/barnowl.jpg,6,6,playground,54,159591,0.0-0.0-0.54,3,3,0,1
notmyname,1096,5,8,1,adj_8_6,schema_learning,img/targets/BOSS/downsized/basketball01.jpg,5,8,playground,55,162209,0.0-0.0-0.55,3,3,0,1
notmyname,1425,9,10,1,adj_8_6,schema_learning,img/targets/BOSS/downsized/battleaxe.jpg,9,10,playground,56,165159,0.0-0.0-0.56,3,3,0,1
notmyname,1438,5,6,0,adj_8_6,schema_learning,img/targets/BOSS/downsized/barnowl.jpg,6,6,playground,57,168114,0.0-0.0-0.57,3,3,1,1
notmyname,1507,9,10,1,adj_8_6,schema_learning,img/targets/BOSS/downsized/battleaxe.jpg,9,10,playground,58,171142,0.0-0.0-0.58,3,3,0,1
notmyname,1385,5,8,1,adj_8_6,schema_learning,img/targets/BOSS/downsized/basketball01.jpg,5,8,playground,59,174051,0.0-0.0-0.59,3,3,0,1
notmyname,1476,9,3,1,adj_8_6,schema_learning,img/targets/BOSS/downsized/badmintonracket.jpg,9,3,playground,60,177042,0.0-0.0-0.60,3,3,0,1
notmyname,1461,9,10,1,adj_8_6,schema_learning,img/targets/BOSS/downsized/battleaxe.jpg,9,10,playground,61,180020,0.0-0.0-0.61,3,3,0,1
notmyname,1354,2,4,0,adj_8_6,schema_learning,img/targets/BOSS/downsized/ballofstring.jpg,2,5,playground,62,182882,0.0-0.0-0.62,3,3,1,1
notmyname,1449,10,6,1,adj_8_6,schema_learning,img/targets/BOSS/downsized/barrel01.jpg,10,6,playground,63,185842,0.0-0.0-0.63,3,3,0,1
notmyname,1369,4,11,0,adj_8_6,schema_learning,img/targets/BOSS/downsized/bassethound.jpg,4,10,playground,64,188725,0.0-0.0-0.64,3,3,-1,1
notmyname,1104,5,8,1,adj_8_6,schema_learning,img/targets/BOSS/downsized/basketball01.jpg,5,8,playground,65,191350,0.0-0.0-0.65,3,3,0,1
notmyname,1394,9,10,1,adj_8_6,schema_learning,img/targets/BOSS/downsized/battleaxe.jpg,9,10,playground,66,194267,0.0-0.0-0.66,3,3,0,1
notmyname,1678,7,6,0,adj_8_6,schema_learning,img/targets/BOSS/downsized/barnowl.jpg,6,6,playground,67,197456,0.0-0.0-0.67,3,3,-1,1
notmyname,1410,2,4,0,adj_8_6,schema_learning,img/targets/BOSS/downsized/ballofstring.jpg,2,5,playground,68,200381,0.0-0.0-0.68,3,3,1,1
notmyname,1415,11,6,0,adj_8_6,schema_learning,img/targets/BOSS/downsized/barrel01.jpg,10,6,playground,69,203312,0.0-0.0-0.69,3,3,-1,1
notmyname,1241,5,9,0,adj_8_6,schema_learning,img/targets/BOSS/downsized/basketball01.jpg,5,8,playground,70,206073,0.0-0.0-0.70,3,3,-1,1
notmyname,1376,4,2,1,adj_8_6,schema_learning,img/targets/BOSS/downsized/artichoke01b.jpg,4,2,playground,71,208972,0.0-0.0-0.71,3,3,0,1
notmyname,1446,9,10,1,adj_8_6,schema_learning,img/targets/BOSS/downsized/battleaxe.jpg,9,10,playground,72,211938,0.0-0.0-0.72,3,3,0,1
notmyname,1350,4,10,1,adj_8_6,schema_learning,img/targets/BOSS/downsized/bassethound.jpg,4,10,playground,73,214801,0.0-0.0-0.73,3,3,0,1
notmyname,1925,5,8,1,adj_8_6,schema_learning,img/targets/BOSS/downsized/basketball01.jpg,5,8,playground,74,218242,0.0-0.0-0.74,3,3,0,1
notmyname,1215,4,10,1,adj_8_6,schema_learning,img/targets/BOSS/downsized/bassethound.jpg,4,10,playground,75,220970,0.0-0.0-0.75,3,3,0,1
notmyname,1456,10,6,1,adj_8_6,schema_learning,img/targets/BOSS/downsized/barrel01.jpg,10,6,playground,76,223940,0.0-0.0-0.76,3,3,0,1
notmyname,1369,4,10,1,adj_8_6,schema_learning,img/targets/BOSS/downsized/bassethound.jpg,4,10,playground,77,226818,0.0-0.0-0.77,3,3,0,1
notmyname,1619,7,6,0,adj_8_6,schema_learning,img/targets/BOSS/downsized/barnowl.jpg,6,6,playground,78,229953,0.0-0.0-0.78,3,3,-1,1
notmyname,1332,9,10,1,adj_8_6,schema_learning,img/targets/BOSS/downsized/battleaxe.jpg,9,10,playground,79,232804,0.0-0.0-0.79,3,3,0,1
notmyname,2296,5,6,0,adj_8_6,new_pa_learning,img/targets/BOSS/downsized/bed.jpg,5,4,playground,0,3300,0.0-0.0-0.0,4,1,-2,0
notmyname,1098,4,6,0,adj_8_6,new_pa_learning,img/targets/BOSS/downsized/beachumbrella01.jpg,2,3,playground,1,5909,0.0-0.0-0.1,4,1,-5,0
notmyname,1543,5,7,0,adj_8_6,new_pa_learning,img/targets/BOSS/downsized/cartonofeggs.jpg,3,10,playground,2,8967,0.0-0.0-0.2,4,1,1,1
notmyname,1452,5,3,0,adj_8_6,new_pa_learning,img/targets/BOSS/downsized/bed.jpg,5,4,playground,3,11937,0.0-0.0-0.3,4,1,1,1
notmyname,1270,2,4,0,adj_8_6,new_pa_learning,img/targets/BOSS/downsized/beachumbrella01.jpg,2,3,playground,4,14716,0.0-0.0-0.4,4,1,-1,1
notmyname,1850,5,3,0,adj_8_6,new_pa_learning,img/targets/BOSS/downsized/bed.jpg,5,4,playground,5,18078,0.0-0.0-0.5,4,1,1,1
notmyname,1232,8,6,0,adj_8_6,new_pa_learning,img/targets/BOSS/downsized/carsidemirror01.jpg,7,9,playground,6,20828,0.0-0.0-0.6,4,1,2,0
notmyname,1345,2,3,1,adj_8_6,new_pa_learning,img/targets/BOSS/downsized/beachumbrella01.jpg,2,3,playground,7,23692,0.0-0.0-0.7,4,1,0,1
notmyname,1189,9,4,0,adj_8_6,new_pa_learning,img/targets/BOSS/downsized/beachpaddle01a.jpg,10,2,playground,8,26400,0.0-0.0-0.8,4,1,-1,1
notmyname,1137,1,3,0,adj_8_6,new_pa_learning,img/targets/BOSS/downsized/beachumbrella01.jpg,2,3,playground,9,29049,0.0-0.0-0.9,4,1,1,1
notmyname,2016,3,9,0,adj_8_6,new_pa_learning,img/targets/BOSS/downsized/cartonofeggs.jpg,3,10,playground,10,32580,0.0-0.0-0.10,4,1,1,1
notmyname,1143,7,8,0,adj_8_6,new_pa_learning,img/targets/BOSS/downsized/bench01.jpg,11,7,playground,11,35240,0.0-0.0-0.11,4,1,3,0
notmyname,1471,6,9,0,adj_8_6,new_pa_learning,img/targets/BOSS/downsized/carsidemirror01.jpg,7,9,playground,12,38229,0.0-0.0-0.12,4,1,1,1
notmyname,1419,10,6,0,adj_8_6,new_pa_learning,img/targets/BOSS/downsized/beachpaddle01a.jpg,10,2,playground,13,41165,0.0-0.0-0.13,4,1,-4,0
notmyname,1235,7,9,1,adj_8_6,new_pa_learning,img/targets/BOSS/downsized/carsidemirror01.jpg,7,9,playground,14,43911,0.0-0.0-0.14,4,1,0,1
notmyname,1154,10,6,0,adj_8_6,new_pa_learning,img/targets/BOSS/downsized/bench01.jpg,11,7,playground,15,46580,0.0-0.0-0.15,4,1,2,0
notmyname,1475,9,3,0,adj_8_6,new_pa_learning,img/targets/BOSS/downsized/beachpaddle01a.jpg,10,2,playground,16,49562,0.0-0.0-0.16,4,1,0,1
notmyname,1295,3,10,1,adj_8_6,new_pa_learning,img/targets/BOSS/downsized/cartonofeggs.jpg,3,10,playground,17,52378,0.0-0.0-0.17,4,1,0,1
notmyname,1184,2,3,1,adj_8_6,new_pa_learning,img/targets/BOSS/downsized/beachumbrella01.jpg,2,3,playground,18,55077,0.0-0.0-0.18,4,1,0,1
notmyname,1227,9,3,0,adj_8_6,new_pa_learning,img/targets/BOSS/downsized/bench01.jpg,11,7,playground,19,57822,0.0-0.0-0.19,4,1,6,0
notmyname,1445,9,2,0,adj_8_6,new_pa_learning,img/targets/BOSS/downsized/beachpaddle01a.jpg,10,2,playground,20,60779,0.0-0.0-0.20,4,1,1,1
notmyname,1325,10,7,0,adj_8_6,new_pa_learning,img/targets/BOSS/downsized/bench01.jpg,11,7,playground,21,63621,0.0-0.0-0.21,4,1,1,1
notmyname,1436,5,3,0,adj_8_6,new_pa_learning,img/targets/BOSS/downsized/bed.jpg,5,4,playground,22,66572,0.0-0.0-0.22,4,1,1,1
notmyname,1367,10,2,1,adj_8_6,new_pa_learning,img/targets/BOSS/downsized/beachpaddle01a.jpg,10,2,playground,23,69456,0.0-0.0-0.23,4,1,0,1
notmyname,1287,5,3,0,adj_8_6,new_pa_learning,img/targets/BOSS/downsized/bed.jpg,5,4,playground,24,72264,0.0-0.0-0.24,4,1,1,1
notmyname,1168,2,3,1,adj_8_6,new_pa_learning,img/targets/BOSS/downsized/beachumbrella01.jpg,2,3,playground,25,74946,0.0-0.0-0.25,4,1,0,1
notmyname,1482,10,2,1,adj_8_6,new_pa_learning,img/targets/BOSS/downsized/beachpaddle01a.jpg,10,2,playground,26,77940,0.0-0.0-0.26,4,1,0,1
notmyname,1377,1,2,0,adj_8_6,new_pa_learning,img/targets/BOSS/downsized/beachumbrella01.jpg,2,3,playground,27,80838,0.0-0.0-0.27,4,1,2,0
notmyname,1626,5,3,0,adj_8_6,new_pa_learning,img/targets/BOSS/downsized/bed.jpg,5,4,playground,28,83986,0.0-0.0-0.28,4,1,1,1
notmyname,1443,3,10,1,adj_8_6,new_pa_learning,img/targets/BOSS/downsized/cartonofeggs.jpg,3,10,playground,29,86938,0.0-0.0-0.29,4,1,0,1
notmyname,1430,9,2,0,adj_8_6,new_pa_learning,img/targets/BOSS/downsized/beachpaddle01a.jpg,10,2,playground,30,89877,0.0-0.0-0.30,4,1,1,1
notmyname,1249,3,10,1,adj_8_6,new_pa_learning,img/targets/BOSS/downsized/cartonofeggs.jpg,3,10,playground,31,92645,0.0-0.0-0.31,4,1,0,1
notmyname,1476,11,6,0,adj_8_6,new_pa_learning,img/targets/BOSS/downsized/bench01.jpg,11,7,playground,32,95637,0.0-0.0-0.32,4,1,1,1
notmyname,1412,6,2,0,adj_8_6,new_pa_learning,img/targets/BOSS/downsized/bed.jpg,5,4,playground,33,98564,0.0-0.0-0.33,4,1,1,1
notmyname,1206,10,2,1,adj_8_6,new_pa_learning,img/targets/BOSS/downsized/beachpaddle01a.jpg,10,2,playground,34,101283,0.0-0.0-0.34,4,1,0,1
notmyname,1450,11,8,0,adj_8_6,new_pa_learning,img/targets/BOSS/downsized/bench01.jpg,11,7,playground,35,104243,0.0-0.0-0.35,4,1,-1,1
notmyname,1229,4,10,0,adj_8_6,new_pa_learning,img/targets/BOSS/downsized/cartonofeggs.jpg,3,10,playground,36,106980,0.0-0.0-0.36,4,1,-1,1
notmyname,1630,10,2,1,adj_8_6,new_pa_learning,img/targets/BOSS/downsized/beachpaddle01a.jpg,10,2,playground,37,110124,0.0-0.0-0.37,4,1,0,1
notmyname,2151,2,3,1,adj_8_6,new_pa_learning,img/targets/BOSS/downsized/beachumbrella01.jpg,2,3,playground,38,113787,0.0-0.0-0.38,4,1,0,1
notmyname,1593,6,8,0,adj_8_6,new_pa_learning,img/targets/BOSS/downsized/carsidemirror01.jpg,7,9,playground,39,116902,0.0-0.0-0.39,4,1,2,0
notmyname,1256,12,6,0,adj_8_6,new_pa_learning,img/targets/BOSS/downsized/bench01.jpg,11,7,playground,40,119677,0.0-0.0-0.40,4,1,0,1
notmyname,1297,5,3,0,adj_8_6,new_pa_learning,img/targets/BOSS/downsized/bed.jpg,5,4,playground,41,122498,0.0-0.0-0.41,4,1,1,1
